Acc x axis,Acc y axis,Acc z axis,Gyr x axis,Gyr y axis,Gyr z axis,Label
-9.844670296,-1.053141117,1.637288928,0.07070557,-0.199747056,-0.106745556,1
-9.471389771,-1.100997567,1.857428551,0.076814041,-0.362232417,-0.103080474,1
-9.380462646,-1.20867455,1.606182218,0.069483876,-0.287709057,-0.155613333,1
-9.892526627,-0.234795719,2.091925144,0.087809294,-0.171648085,-0.297329903,1
-9.892526627,-0.447756946,2.312064886,0.124460131,-0.20341213,-0.11163234,1
-10.05045319,-0.715753078,2.113460541,0.029167956,-0.26205346,-0.116519116,1
-9.483354568,-0.993320525,2.601596355,0.076814041,-0.241284668,-0.125070974,1
-10.69412231,-0.26590243,3.247658491,0.185544848,-0.478293389,-0.100637086,1
-10.18684387,-0.124725878,3.142374277,0.299162447,-0.875344098,0.195012987,1
-9.277571678,-0.880857825,2.268994093,0.290610582,-0.900999725,0.154697075,1
-9.330213547,-0.708574593,2.29052949,0.509293914,-0.401326656,-0.296108216,1
-11.04347515,0.684048176,3.00837636,0.651010454,0.026266431,-0.281447887,1
-10.63430214,0.363409936,3.580260992,0.749967694,-0.227846026,0.26464957,1
-10.0265255,-0.82582289,1.898106575,0.471421361,-0.391553104,0.279309899,1
-8.746364594,-1.701596022,2.300100803,-0.149199441,-0.53815645,0.548082709,1
-6.494719028,-2.718545675,3.809971809,-0.402090222,-0.794712305,0.715454876,1
-8.284550667,-1.986341953,5.803193092,-0.226166204,-0.60168457,0.57251662,1
-9.500103951,-1.558026671,4.836492538,0.224639073,-0.280378878,0.704459608,1
-11.52682495,-1.053141117,3.439084291,0.577708781,0.43553409,0.472337633,1
-10.50748253,0.832403183,3.510869026,0.26984179,0.324359894,0.661700308,1
-7.801199913,-0.270688057,4.310071945,-0.212727562,0.039705072,0.758214176,1
-7.463811874,0.212662116,3.793222189,-0.273812294,-0.06902574,0.593285382,1
-8.023732185,-0.40947178,2.24267292,-0.540141702,-0.067804046,0.620162666,1
-7.738986492,-0.143868461,3.065804005,-0.643985748,0.153322667,0.483332902,1
-6.544968128,-0.282652169,3.147160053,-0.73194772,0.113006741,0.322069228,1
-7.059424877,0.234197512,4.030111313,-0.713622332,0.326803297,-0.066429637,1
-7.621738434,0.657727122,3.221337557,-0.332453609,0.452637821,-0.368188173,1
-8.849256516,0.887438118,3.422334671,-0.444849521,0.690868258,-0.619857252,1
-11.7780714,1.267896891,4.929812908,-0.518151164,0.519831002,-0.313211918,1
-10.8927269,1.105184913,5.264808178,-0.00503949,0.648108959,0.119267926,1
-12.35713387,0.38973099,5.31027174,0.405449867,1.112352848,-0.490357637,1
-13.14437294,-2.670689106,-0.178863496,0.031611346,0.717745543,-0.43293801,1
-10.6797657,-4.190131664,1.350150228,-1.221847177,0.665212691,-0.365744799,1
-8.755936623,-2.634796858,5.200201988,-1.227955699,-0.281600595,-0.359636337,1
-7.107281685,-2.974577665,0.194416836,0.891684294,-0.156987742,-0.524565101,1
-7.284350395,-1.345065475,-0.092721879,0.268620074,0.46363306,-0.771347404,1
-9.090931892,-1.802094579,2.079961061,-0.013591352,0.439199179,-0.559994221,1
-10.08873844,-1.438385487,0.462412983,0.03771982,0.117893524,-0.298551589,1
-8.96889782,-2.467299223,0.56291151,-0.136982501,0.188751802,-0.348641068,1
-8.356334686,-2.309372902,1.582253933,-0.023364907,0.248614833,-0.694380641,1
-9.583852768,-2.07248354,1.24965167,0.074370652,0.22295925,-0.733474851,1
-9.390034676,-0.639182746,1.524826288,0.103691325,0.1007898,-0.270452619,1
-8.468797684,-1.038784146,0.699302435,0.075592346,0.072690822,-0.39017868,1
-9.119645119,-1.438385487,1.029511929,-0.254265159,-0.08490777,-0.349862754,1
-9.382855415,-2.18494606,0.826122046,-0.262817025,-0.189973503,-0.280226171,1
-9.923633575,-1.979163408,0.981655478,-0.304354638,-0.312142938,-0.156835034,1
-10.65344429,-2.115554333,1.359721422,-0.233496368,-0.243728057,-0.122627586,1
-10.56969547,-1.873879194,1.792822361,0.212422132,0.083686076,-0.344975978,1
-12.60838032,-0.622433007,3.230908871,0.781731784,0.348793775,-0.42560783,1
-12.55095291,-1.847558141,0.919442117,0.812274158,0.022601349,0.408809543,1
-9.710672379,-2.677867651,-0.391824722,0.249072969,-0.372005969,0.780204654,1
-10.14377308,-3.070290565,0.285344094,-0.234718055,-0.760504842,1.004996419,1
-9.248857498,-4.338486671,4.886742115,-0.606113195,-1.02316916,1.637834191,1
-9.062217712,-5.286044121,4.604389191,-0.259151936,-0.613901496,1.06119442,1
-9.021539688,-2.273480654,3.635295868,0.432327151,-0.249836534,0.521205425,1
-10.60080242,-1.203888893,0.37148571,0.256403148,-0.604127944,0.306187183,1
-10.42373371,-0.306580395,3.178266764,-0.348335654,-0.611458123,0.886492074,1
-6.86082077,-2.35962224,2.773879766,-0.505934238,-0.540599823,0.954907,1
-6.504290104,-2.594118834,2.446063042,-0.442406118,-0.491732031,0.771652818,1
-5.659623623,-2.474477768,1.529611826,-0.601226389,-0.313364655,0.429578334,1
-6.54018259,-1.866700768,2.575275421,-0.723395884,0.029931515,-0.048104223,1
-7.143173695,-0.627218664,4.374678135,-0.492495596,0.309699565,-0.353527844,1
-7.942376614,-0.198903382,3.764508247,-0.07711947,0.649330616,-0.610083699,1
-10.14616585,-0.186939269,3.664009571,-0.027029991,0.777608573,-0.672390103,1
-13.08455276,0.00209372,4.149752617,-0.187071979,0.598019481,-0.268009245,1
-11.89531994,-0.490827739,5.437091351,-0.237161443,0.406213433,0.065513365,1
-13.90050507,-0.806680322,5.173880577,0.201426879,0.930320382,-0.206924513,1
-11.25164986,-4.046562195,1.92203474,0.48241663,0.828919709,0.137593344,1
-8.47597599,-6.051747799,-0.037686955,-0.204175696,0.78249532,-0.243575349,1
-9.122037888,-2.211267233,5.013561726,-0.400868505,0.479515105,-0.551442385,1
-7.676773071,-2.431406975,-0.710070133,0.846481562,-0.077577598,-0.336424142,1
-7.64327383,-1.345065475,-0.956530869,-0.07345438,0.06902574,-0.32665056,1
-11.02911758,-1.773380637,1.333400369,0.095139459,0.514944255,-0.712706029,1
-9.619745255,-1.278066397,1.517647743,0.345586836,0.17531316,0.005650337,1
-8.712865829,-2.259123564,-0.212363005,0.197761804,-0.103233188,0.012980504,1
-9.459425926,-2.306980133,0.912263632,0.102469631,0.065360658,-0.243575349,1
-8.468797684,-2.565404892,1.244866014,0.057266932,-0.050700322,-0.195929259,1
-8.133802414,-1.804487348,0.328414917,0.023059484,-0.003054236,-0.308325142,1
-8.693722725,-1.268495083,0.936191857,0.130568609,0.295039237,-0.53556031,1
-9.4809618,-1.335494161,1.357328653,0.093917765,0.379336149,-0.574654579,1
-10.10548782,-1.292423368,1.47457695,0.140342161,0.253501624,-0.564881027,1
-10.11266708,-1.014855862,1.448255897,0.19043164,-0.048256934,-0.385291904,1
-11.08893871,-1.534098387,1.821536183,0.261289924,-0.045813546,-0.144618094,1
-10.93579769,-0.940678418,1.783251047,0.534949481,0.071469128,-0.134844527,1
-11.49811077,-1.108175993,2.132603168,0.792727053,0.152100965,-0.054212693,1
-12.66341591,-1.744666815,1.4267205,0.912453115,0.023823043,0.368493617,1
-11.11765194,-2.297408819,-1.095314622,0.487303406,-0.318251431,0.879161894,1
-9.212965012,-2.924328327,-0.01375873,-0.072232686,-0.744622827,0.950020194,1
-7.834699631,-4.936692238,2.96291256,-0.757603288,-1.178324342,1.176033735,1
-8.578866959,-4.934299469,3.518047571,-0.646429121,-0.84968853,0.636044681,1
-11.57946682,-3.541676521,4.594817638,0.213643834,-0.115450129,-0.173938751,1
-11.15593719,-0.483649284,1.658824325,0.801278889,-0.433090717,0.672695518,1
-9.543174744,-1.41685009,2.278565407,0.288167208,-0.393996477,0.928029716,1
-6.820142746,-2.101197481,2.111067772,-0.107661828,-0.450194418,0.941468358,1
-6.3343997,-1.785344839,2.300100803,-0.27869907,-0.425760537,0.638488114,1
-5.745765209,-1.962413669,1.733001828,-0.268925518,-0.188751802,0.340394646,1
-5.865406513,-1.469492197,2.742773056,-0.244491622,0.196081966,-0.257013977,1
-7.016354084,-0.474078,3.606581926,-0.221279413,0.422095448,-0.651621342,1
-9.14596653,0.310767829,4.817350388,0.151337415,0.590689301,-0.999804258,1
-12.05563831,-0.198903382,3.101696253,0.339478374,0.591911018,-0.944827974,1
-13.39322662,-0.87367934,2.101496458,-0.319014966,0.40010494,-0.242353648,1
-12.83809185,-1.024427176,7.494918823,-0.537698328,0.524717808,-0.09575031,1
-13.80239964,-3.256930828,3.74536562,-0.344670564,0.577250659,0.135149956,1
-7.640881062,-5.896214008,1.082154036,0.262511611,0.622453332,-0.189820781,1
-9.588638306,-3.716352701,2.821736097,-0.23105298,-0.114228435,-0.889851749,1
-9.454640388,-1.826022744,0.594018221,0.62046808,-0.029931515,-0.297329903,1
-7.061817646,-1.223031521,-0.820139945,0.267398387,0.087351158,-0.242353648,1
-7.057032108,-3.055933714,1.161117196,-0.116213694,0.320694804,-0.42560783,1
-10.46201897,-1.742274046,0.847657442,-0.039246935,0.314586341,-0.283891261,1
-9.940383911,-1.955235243,0.742373228,-0.016034741,0.145992488,0.009315421,1
-8.854042053,-2.948256493,0.361914426,0.068262182,0.141105711,0.014202199,1
-8.109873772,-2.850150824,0.96251291,-0.063680828,0.094681323,-0.170273677,1
-8.854042053,-1.780559182,1.063011408,-0.049020492,0.167982996,-0.453706801,1
-8.413763046,-0.758823872,0.689731121,-0.040468629,0.208298922,-0.428051203,1
-8.289336205,-1.148854017,0.503090978,-0.154086217,0.221737549,-0.421942741,1
-9.614959717,-1.452742457,0.893121064,-0.311684817,0.153322667,-0.485470861,1
-10.31844902,-1.141675472,1.429113269,-0.386208177,0.016492875,-0.282669574,1
-11.28993511,-1.141675472,1.386042476,-0.471726805,-0.287709057,0.297635317,1
-10.86640549,-2.249552488,1.63489604,-0.259151936,-0.279157192,0.460120708,1
-10.39501953,-1.502991676,2.491526604,0.079257429,-0.050700322,-0.243575349,1
-13.45783234,-0.411864609,3.02512598,0.271063477,-0.010384403,0.076508619,1
-12.35952759,-2.254338026,-0.662213683,0.152559102,-0.444085956,0.754549086,1
-10.48594666,-1.914557219,0.014955142,-0.036803547,-0.693311632,1.003774762,1
-8.363512993,-4.12073946,2.654238462,-0.027029991,-0.992626786,1.074633002,1
-8.148159027,-5.759823322,2.438884497,-0.328788549,-1.570488334,1.095401883,1
-9.27278614,-3.917349815,3.065804005,-0.548693538,-0.948645771,0.638488114,1
-11.95753288,-0.871286571,2.599203587,0.438435614,-0.397661567,0.447903752,1
-11.40957642,0.088235334,1.855035782,0.615581334,-0.544264913,0.935359836,1
-7.5954175,-2.146661043,2.032104731,-0.31779328,-0.671321154,1.217571259,1
-6.489933014,-2.362015009,2.379063845,-0.83457005,-0.529604554,0.849841237,1
-6.353542328,-2.476870537,2.355135679,-0.355665803,-0.242506355,0.620162666,1
-5.437091351,-2.216052771,2.240280151,-0.094223186,0.186308414,0.127819791,1
-6.265007973,-1.359422326,3.149552822,-0.151642829,0.406213433,-0.414612591,1
-8.107481003,0.382552534,4.802993298,0.029167956,0.606571317,-0.927724302,1
-11.24207878,0.995115101,4.295714855,0.395676315,0.859462082,-1.005912781,1
-12.29252815,-0.148654103,1.845464468,0.141563848,0.808150947,-0.513569832,1
-11.06979561,-0.002691926,5.992226124,-0.538919985,0.547930002,-0.018783553,1
-16.53021622,-0.507577479,4.417748928,-0.158972993,0.976744771,-0.202037737,1
-8.751151085,-4.044169426,2.190030813,0.247851282,0.673764527,0.314739048,1
-8.2701931,-4.848157883,1.610967875,-0.052685577,0.70797199,-0.850757539,1
-10.92383385,-0.964606643,3.300300598,-0.051463883,0.174091473,-0.46836713,1
-7.262814999,-1.81645143,-1.332203984,0.424996972,0.180199936,-0.23991026,1
-6.645466805,-1.426421404,0.299701035,-0.049020492,0.137440637,-0.456150204,1
-10.64387321,-2.015055656,0.184845552,-0.277477354,0.232732803,-0.396287173,1
-9.698708534,-1.739881158,2.350350142,0.151337415,0.273048729,0.032527618,1
-9.050253868,-2.249552488,-0.52342993,0.184323162,0.108119965,-0.103080474,1
-10.0265255,-2.031805515,0.972084224,0.008399149,0.128888771,-0.232580096,1
-8.538188934,-2.271087885,0.850050271,0.134233683,0.017714571,-0.226471618,1
-8.442476273,-1.335494161,1.278365493,0.136677071,0.07513421,-0.282669574,1
-8.045268059,-1.345065475,0.156131685,0.003512372,0.093459629,-0.360858023,1
-8.653044701,-1.689631939,1.132403374,-0.117435388,0.209520608,-0.442711562,1
-10.05284595,-1.234995604,1.354935765,-0.019699825,0.138662323,-0.338867515,1
-10.41176987,-0.318544507,1.055832982,0.042606596,-0.17531316,0.199899763,1
-11.34257793,-1.684846282,1.192223907,0.214865521,0.109341659,0.590842009,1
-10.44526863,-2.127518415,1.412363529,0.115908265,0.15943113,0.568851531,1
-10.9501543,-1.060319543,3.099303484,0.302827537,0.346350402,-0.580763042,1
-12.42652607,0.198305175,2.541775942,0.795170426,0.070247434,-0.199594349,1
-11.64646626,-1.146461129,0.543768942,0.751189411,-0.347572088,0.460120708,1
-9.921240807,-1.194317579,-0.997208834,0.203870267,-0.706750274,0.604280651,1
-7.96391201,-2.529512644,1.838286042,-0.182185188,-0.842358351,0.39903596,1
-9.260822296,-3.467499018,3.130410194,-0.064902522,-1.489856482,0.551747799,1
-11.52443218,-3.036791086,2.86480689,-0.327566832,-0.81059432,0.886492074,1
-11.25643635,-0.833001375,3.675973892,0.488525093,-0.137440637,0.53708744,1
-10.67019463,-0.663110971,0.969691396,0.830599546,-0.451416135,0.64337486,1
-9.124430656,-0.603290439,1.319043517,-0.133317411,-0.497840524,1.053864241,1
-6.724429607,-1.730309844,1.936391711,-1.049588323,-0.525939465,0.969567299,1
-6.083153248,-1.830808401,2.163709879,-0.750273168,-0.50272727,0.735001981,1
-6.22193718,-1.785344839,0.646660328,-0.606113195,-0.32558158,0.214560106,1
-6.47796917,-1.366600871,2.907877684,-0.907871723,0.105676576,-0.140953004,1
-7.176673412,-0.560219586,5.099703312,-0.457066476,0.374449372,-0.578319669,1
-8.717651367,-0.170189515,3.812364578,0.205091968,0.827698052,-0.963153422,1
-12.12981606,0.552442908,3.620938778,0.175771296,0.804485857,-0.806776524,1
-13.08216,0.746261537,3.649652719,-0.118657082,0.606571317,-0.300994992,1
-14.9342041,0.112163559,6.030511379,-0.06734591,1.024390817,-0.096972004,1
-12.74477196,-3.225824118,1.366899967,0.096361153,0.215629086,0.4381302,1
-9.349356651,-4.702195644,0.022133609,-0.201732308,0.574807286,-0.040774055,1
-9.947562218,-1.943271041,4.080360889,-0.755159914,0.138662323,-0.430494606,1
-8.413763046,-2.496013165,-0.207577363,0.899014473,-0.154544353,0.107050985,1
-7.11685276,-2.163410664,-2.349153519,0.196540102,-0.102011494,0.301300406,1
-8.145766258,-2.151446581,2.48195529,-0.279920757,0.556481838,-0.558772504,1
-10.55055332,0.138484612,1.864607096,0.640015244,0.170426384,-0.073759809,1
-9.29432106,-1.256531,-0.705284476,0.476308137,0.0787993,0.071621843,1
-9.289535522,-1.002891779,1.072582722,0.07070557,0.05314371,-0.07009472,1
-8.459226608,-1.491027594,1.017547846,0.02183779,-0.016492875,-0.148283169,1
-8.385048866,-0.629611433,1.118046403,-0.058794048,0.029931515,-0.302216679,1
-8.468797684,-0.533898532,0.938584685,-0.138204187,0.067804046,-0.470810533,1
-9.794421196,-0.124725878,2.19242382,-0.128430635,0.116671823,-0.501352906,1
-9.803992271,-0.416650236,1.199402332,0.023059484,-0.124001995,-0.215476364,1
-10.17248726,-0.780359268,1.350150228,0.084144212,-0.202190444,-0.018783553,1
-10.09113121,-1.187139153,1.496112347,0.267398387,-0.248614833,-0.127514362,1
-12.17049408,0.514157772,2.283350945,0.593590796,-0.036039989,-0.215476364,1
-12.87637711,0.310767829,3.45583415,1.123806238,0.077577598,0.287861764,1
-11.26361465,-0.706181765,0.833300471,1.159235358,-0.459968001,0.844954491,1
-8.971290588,0.286839604,-0.454038084,0.509293914,-0.839914978,0.984227657,1
-9.220144272,-2.005484581,2.319243431,-0.348335654,-0.962084413,1.10028863,1
-7.212565422,-3.754637718,4.441677094,-0.417972237,-0.931542099,0.934138179,1
-10.25862885,-2.460120678,5.338985443,-0.240826532,-0.600462854,0.555412889,1
-11.36889839,-0.498006225,4.092324734,0.500742018,-0.295039237,0.366050214,1
-10.70608711,1.490429401,1.433898926,0.457982719,-0.328024983,0.642153203,1
-7.815557003,-0.842572689,3.302693367,-0.541363358,-0.444085956,1.026986957,1
-6.023332596,-1.301994562,3.498904943,-0.51937288,-0.253501624,0.500436604,1
-7.179066181,-0.127118707,2.087139606,-0.573127449,-0.208298922,0.187682822,1
-6.657430649,-0.509970307,2.831307411,-0.685523331,0.108119965,-0.01267508,1
-6.375077724,-0.536291361,3.092125177,-0.585344374,0.40377003,-0.388956994,1
-6.918248653,0.131306142,4.59242487,-0.494938999,0.620009959,-0.674833536,1
-9.533603668,0.987936676,5.286343575,-0.103996746,0.604127944,-0.722479582,1
-12.84287739,0.576371133,2.469991207,-0.194402143,0.492953748,-0.3229855,1
-11.56032467,0.241375983,4.642673969,-0.758825004,0.259610087,0.254876018,1
-14.7762785,0.920937598,7.683951855,0.241742805,0.736070931,-0.002901525,1
-12.17049408,-2.407478571,0.878764093,0.569156945,0.712858737,0.14248012,1
-9.801599503,-4.328915119,1.302293777,0.067040488,0.979188144,-0.414612591,1
-7.789236069,-2.462513685,5.36052084,-0.110105217,0.384222925,-0.663838267,1
-7.313064098,-1.536491275,-1.104885817,0.921004951,-0.236397892,-0.377961755,1
-8.385048866,-0.864108086,-0.343968242,0.247851282,0.418430358,-0.611305416,1
-9.820742607,-0.914357364,2.544168711,0.355360389,0.716523826,-0.558772504,1
-10.6103735,0.473479778,1.034297585,0.310157686,0.318251431,-0.13362284,1
-10.20359421,-1.033998489,0.617946446,-0.06734591,-0.098346412,0.070400149,1
-8.688937187,-1.739881158,1.034297585,-0.007482879,-0.00671932,-0.099415392,1
-7.841877937,-1.56041944,1.661217093,0.029167956,-0.03115321,-0.162943512,1
-8.571688652,-0.835394204,1.247258782,0.115908265,0.139884025,-0.424386144,1
-9.014361382,0.334696054,1.065404296,0.024281178,0.150879279,-0.360858023,1
-9.418747902,-0.007477571,1.816750646,-0.08933641,0.114228435,-0.387735307,1
-9.516854286,-0.734895647,1.070189953,-0.09910997,-0.023823043,-0.28755635,1
-9.768099785,-1.196710467,1.029511929,-0.111326911,-0.187530115,-0.195929259,1
-11.25882912,-0.677467883,1.596610904,-0.066124216,-0.227846026,-0.021226943,1
-10.34477043,-0.098404832,1.460219979,0.069483876,-0.170426384,-0.052990999,1
-11.57946682,0.112163559,2.254637241,0.37246412,-0.04703524,-0.220363155,1
-12.80219936,-0.167796686,2.33838582,0.554496586,-0.109341659,0.198678076,1
-11.66082287,-0.498006225,-0.023330022,0.301605821,-0.440420866,0.4381302,1
-10.54337502,-0.519541621,1.366899967,0.063375406,-0.555260181,0.695907712,1
-7.657630444,-3.582354546,3.175873756,-0.389873266,-0.91688174,0.918256164,1
-8.315656662,-4.264308929,3.379263878,-0.617108464,-1.16122067,0.667808771,1
-8.777471542,-2.596511602,4.695316315,-0.19562383,-0.539378107,0.377045482,1
-11.17268753,-0.433400005,1.92203474,0.324818015,-0.354902267,0.347724795,1
-11.63928795,-0.356829673,2.654238462,0.125681818,-0.455081195,0.659256876,1
-8.026124954,-1.761416554,2.529811859,-0.333675325,-0.507614076,0.716676533,1
-7.844270706,-1.211067319,2.860021353,-0.619551837,-0.446529359,0.450347155,1
-7.045068264,-1.445564032,2.67338109,-0.490052223,-0.422095448,0.353833288,1
-6.968497753,-0.847358346,2.915056229,-0.439962745,-0.142327413,0.026419144,1
-6.808178425,-0.596111953,3.259622574,-0.273812294,0.102011494,-0.194707558,1
-7.346563816,-0.009870393,4.125824451,0.020616096,0.433090717,-0.489135951,1
-9.14596653,0.758225679,4.283750534,0.214865521,0.623675048,-0.57098949,1
-10.94536877,0.660119951,4.243072987,0.300384134,0.731184185,-0.368188173,1
-11.62253761,0.186341062,2.917448997,-0.19562383,0.429425627,0.143701822,1
-10.24427223,-0.067298137,7.066603661,0.020616096,0.516165912,0.061848287,1
-13.01755333,-0.799501836,3.386442184,0.37246412,0.908329844,0.116824538,1
-9.492925644,-2.833401203,0.735194743,0.409114957,0.583359122,0.02519745,1
-9.650852203,-2.658725023,3.422334671,-0.446071208,0.74340111,-0.555107474,1
-9.378069878,-1.636989832,2.599203587,0.338256657,0.216850773,-0.264344156,1
-7.858627796,-1.546062589,-0.930209816,0.271063477,0.03115321,-0.258235693,1
-9.031110764,-1.347458243,2.594418049,-0.757297873,-0.335660577,0.229831278,1
-8.006982803,-1.718345761,3.719044685,-0.683996201,-0.477377146,0.347113967,1
-9.720243454,-0.799501836,4.156930923,-0.418888509,-0.583664536,0.421637326,1
-10.41416264,-1.60827589,4.147359848,-0.233190939,-0.449278146,0.723395884,1
-9.581459999,-0.914357364,5.056632519,0.077272177,-0.292901248,0.501047492,1
-11.15832996,-0.06011967,3.379263878,0.19455485,-0.421179175,0.370326161,1
-9.861420631,0.059521463,4.235894203,0.057725064,-0.186613843,0.45584476,1
-7.985447407,0.217447758,3.652045488,0.089489125,-0.313670069,0.38498649,1
-7.636095047,0.53330034,3.683152199,-0.146297917,-0.391858518,0.350779027,1
-7.289135933,0.473479778,3.812364578,-0.019241689,-0.364981234,0.290915996,1
-7.547560692,0.760618508,4.037290096,0.233649075,-0.159736559,0.050242186,1
-7.985447407,1.392323732,4.219144344,0.416903257,0.002748813,-0.158667579,1
-8.880363464,2.134098768,3.979862213,0.397356153,-0.010689827,-0.140342161,1
-9.45224762,1.94028008,3.802793503,0.016187452,-0.035123717,-0.131790295,1
-9.672387123,1.279860973,5.784050465,-0.351695299,-0.019241689,-0.134233683,1
-9.150752068,1.105184913,6.288936138,-0.236856028,-0.083991498,-0.291832268,1
-9.500103951,1.789532185,6.231508255,-0.093765058,0.012522369,-0.555718303,1
-14.58724499,-2.708974361,3.71186614,-0.674222648,0.289847016,-0.278393626,1
-9.418747902,-3.120539904,6.410970211,0.065055236,0.565949976,-0.180658072,1
-6.848856449,-2.929114103,3.58504653,0.49387002,-0.014354911,-0.288167208,1
-8.054839134,-3.637389421,0.960120082,-0.022906773,0.030847786,-0.644901991,1
-10.42851925,-1.866700768,2.405385017,-0.068109468,0.623369634,-1.005301833,1
-9.01675415,-1.189531922,3.568296671,0.547624588,0.602600813,-0.350473613,1
-7.025925636,-2.735295296,2.199602127,0.210436881,0.482874751,-0.111021489,1
-8.672187805,-2.139482498,2.572882652,-0.046118967,0.729657054,-0.709651828,1
-9.382855415,-1.852343798,1.488933921,0.641695023,0.668572307,-0.468977988,1
-7.660023689,-1.933699846,1.823929071,0.299620569,0.515860498,-0.294275671,1
-7.652844906,-0.892821968,2.869592667,0.036956258,0.297177196,-0.494633555,1
-9.576674461,-0.124725878,1.718644857,0.215323657,0.338714808,-0.352917016,1
-8.516654015,-1.48145628,1.69950223,0.063833542,0.331384629,-0.323596328,1
-9.098110199,-1.010070205,2.350350142,-0.138967752,0.089489125,-0.509293914,1
-10.277771,-1.471885085,1.448255897,-0.033902023,-0.098651834,-0.338256657,1
-10.02891827,-1.854736686,1.077368379,0.02107423,-0.185392141,-0.103691325,1
-9.99302578,-0.14626129,1.07497561,0.008857286,-0.130415887,0.013591352,1
-10.52423191,1.007079244,1.979462504,0.325276166,0.159125715,0.041690327,1
-12.38345528,-1.117747307,2.355135679,0.510973752,0.377809018,-0.04382829,1
-13.24965763,-4.467699051,-1.750947952,-1.090820551,0.069942012,0.612221658,1
-15.12323761,-6.417849541,2.469991207,-2.412693977,0.005192202,0.465618312,1
-9.263215065,-7.475477219,8.851649284,-0.07177455,-0.174396887,0.96895647,1
-7.901698589,-6.838986397,3.247658491,1.410140872,-0.068109468,1.012937427,1
-9.705886841,-1.895414591,2.527418852,-0.051005747,-0.462716788,0.730726063,1
-13.02473164,-0.538684189,2.505883455,-0.202495873,-0.514027953,0.394760042,1
-9.22492981,-0.821037292,1.733001828,0.038177952,-0.393080205,0.733169436,1
-4.601995945,-1.636989832,2.474776745,-0.796392143,-0.935512602,0.994612038,1
-4.200001717,-1.627418518,2.570489645,-0.979646266,-1.07112062,0.893211424,1
-5.468197823,-2.266302109,2.398206472,-0.828156173,-0.962389827,0.705070436,1
-7.332206726,-1.500598907,3.522833109,-0.396898001,-0.413849026,0.304354638,1
-7.475776196,0.009272188,3.623331785,0.331384629,0.269078225,-0.0865876,1
-8.136195183,0.820439041,3.123231649,0.314280927,0.45477578,-0.323596328,1
-10.63908768,1.79671073,4.298107624,0.181116208,0.470657825,-0.414001733,1
-10.80897808,-0.100797653,3.994219303,-0.611916244,0.167677566,0.031916771,1
-9.653244972,-2.211267233,3.580260992,-0.96742934,-0.47615543,0.108883522,1
-10.39262676,1.703390598,7.607381344,-0.227082461,0.06627693,-0.235634327,1
-22.04567337,0.861117065,4.049253941,0.835944474,0.56106323,-0.079257429,1
-10.18205833,-8.023433685,3.946362734,0.088267431,-0.239146695,0.66475451,1
-2.034497499,-6.822236538,2.682952404,0.076050483,-1.398534775,0.084449634,1
-6.86082077,0.169591308,2.644667149,-0.085213192,-0.522579849,-0.681552827,1
-10.12223816,-1.749452472,-0.360718012,-0.085213192,0.376587331,-0.504407108,1
-14.52981758,-4.14945364,3.436691523,0.281295151,1.219709277,-0.727977216,1
-6.339185238,-2.732902527,2.424527645,1.412584305,1.291789293,-0.435992241,1
-5.001597404,-2.13469696,0.48394838,0.229984,0.732100427,-0.786618531,1
-10.8927269,-0.507577479,2.410170555,-0.075439639,0.336271405,-0.89657104,1
-7.667201996,-1.390529037,2.288136721,0.437672049,0.455997467,-0.258846521,1
-6.102295876,-1.4479568,1.792822361,0.242200941,0.415681571,-0.377350897,1
-9.318249702,-0.002691926,2.1302104,0.172564358,0.435228676,-0.614359617,1
-10.6103735,-0.160618216,1.10608232,0.311837524,0.562284887,-0.550831497,1
-9.976275444,-0.040977087,1.728216171,-0.035123717,0.289847016,-0.527619302,1
-9.681958199,-0.356829673,1.398006678,-0.137746051,-0.090099968,-0.296719044,1
-11.05783176,0.026021946,0.620339274,-0.23441264,-0.325887024,-0.073148958,1
-10.16530895,-0.234795719,0.122632161,-0.560605049,-0.303896517,0.242048234,1
-10.21795082,-0.208474666,2.426920414,-0.504407108,-0.197609082,-0.038941514,1
-13.63250923,-2.59890461,3.446262836,-0.048562355,0.16645588,-0.148894012,1
-11.96949673,-6.001498222,-0.408574462,-0.989419818,-0.140189439,0.96895647,1
-12.90509033,-6.013462543,1.484148264,-1.739540339,-0.353985995,0.705070436,1
-9.466604233,-6.40588522,5.83669281,-0.724312127,-0.416292399,0.967734754,1
-9.124430656,-7.853542805,7.11685276,0.901915967,0.171342656,0.772263646,1
-8.351549149,-3.091825962,2.247458696,0.788298368,-0.27457583,0.734391093,1
-13.05823135,-0.050548378,2.180459738,-0.040010497,-0.407740533,0.088114716,1
-9.136395454,-1.43359983,3.276372433,0.587940514,-0.209826037,0.708735526,1
-4.939383984,-0.868893743,1.067797065,0.222653821,-0.731489599,0.942079186,1
-3.309871912,-1.373779297,2.663809776,-0.811052442,-1.127318621,0.981173396,1
-5.659623623,-1.543669701,2.989233732,-0.360247165,-0.941621065,0.530368149,1
-6.762714863,-1.134497046,3.357728481,0.260526359,-0.083991498,-0.004734066,1
-8.755936623,0.904187858,3.87218523,0.696671307,0.550067961,-0.439657301,1
-10.45723343,1.478465319,5.157131195,0.28496024,0.485318154,-0.578930497,1
-10.8927269,0.353838652,3.707080364,-0.231969252,0.167677566,-0.261289924,1
-9.696315765,-2.08923316,6.757929325,-0.666892469,-0.470046967,0.201732308,1
-8.801400185,1.411466241,7.052246571,0.534185946,-0.377198189,-0.374907494,1
-18.29611969,2.607877493,4.482355118,1.178018928,0.45477578,-0.220973998,1
-14.12543011,-7.039983273,5.248058319,-0.201274171,-0.029015245,0.97262156,1
-0.125024989,-7.786543846,1.986641049,0.419346631,-1.26903522,0.654980958,1
-7.578667641,-0.14626129,2.527418852,-0.127972499,-0.644749284,-0.92833513,1
-12.97687531,-1.325922847,0.460020155,-0.079104722,0.517082214,-0.508072197,1
-12.27577877,-2.864507914,4.393820763,0.142021984,1.017976999,-0.508072197,1
-7.049853802,-2.094018936,1.914856315,0.84449631,0.520747304,-0.357803792,1
-6.272186279,-0.833001375,0.129810631,-0.137746051,0.377809018,-0.405449867,1
-6.5258255,-1.665703654,2.972483873,-0.435992241,0.451110691,-0.333369881,1
-6.554539204,-2.431406975,2.797807932,0.273965001,0.177451134,-0.360247165,1
-7.559525013,-0.421435893,1.438684583,0.437672049,0.477987975,-0.493411869,1
-10.00020409,0.703190744,2.575275421,0.326497853,0.662463844,-0.709651828,1
-9.555138588,0.370588422,1.328614831,0.314280927,0.520747304,-0.731642306,1
-9.818349838,0.583549619,1.637288928,-0.162179947,0.16645588,-0.713316858,1
-9.387641907,0.033200413,2.513062,-0.301605821,-0.182948753,-0.23441264,1
-11.01954651,-0.435792834,0.218345061,-0.10964708,-0.174396887,-0.020616096,1
-10.89751244,-0.08165507,0.268594354,-0.525175929,-0.218377888,0.183406889,1
-12.40977669,0.305982202,4.211966038,-0.116977252,0.072385401,-0.111021489,1
-13.64925861,-5.2238307,1.579861164,0.60015744,0.63192147,-0.073148958,1
-10.70847988,-4.096811295,-0.437288344,-1.203216434,-0.07177455,0.816244662,1
-11.52443218,-5.599503994,3.774079561,-1.572168112,-0.07177455,1.023932695,1
-7.48774004,-8.157431602,7.870592117,0.105371155,0.652690291,0.706292152,1
-9.894919395,-6.34127903,5.37487793,0.756534338,-0.174396887,0.769820273,1
-12.33320618,-1.045962572,3.630510092,0.414459854,-0.762031972,0.323901772,1
-11.08175945,-0.364008158,1.333400369,0.602600813,-0.648414373,0.477835268,1
-6.549753666,0.011665011,2.264208317,0.473101199,-0.406518847,0.685523331,1
-4.013361931,0.045164529,2.209173441,-0.288167208,-0.96483326,0.768598557,1
-4.305285931,-0.672682285,1.596610904,-0.416445106,-0.99659729,0.752716541,1
-4.314857483,-1.821237087,3.474976778,-0.088878274,-0.268467367,0.360552609,1
-7.48774004,-1.182353497,5.073382378,0.579388618,0.348488361,-0.51418066,1
-10.09113121,0.624227583,3.340978622,1.182905674,0.685676038,-0.831821263,1
-10.47159004,0.590728104,3.451048374,0.838387847,0.487761527,-0.361468852,1
-11.83310604,1.14107728,6.810571671,0.272743315,0.095597595,-0.168441132,1
-9.605388641,0.753440022,6.509075642,0.380252421,-0.44072631,-0.013285927,1
-10.11266708,4.400101662,7.392027378,1.164580345,0.025961008,-0.180658072,1
-19.38964081,-0.603290439,2.09671092,-0.76218468,-0.697282135,-0.488525093,1
-6.60478878,-4.91754961,2.367099762,0.138356909,-1.160304427,1.000720501,1
-2.625524759,-3.328715324,1.601396561,-0.136524364,-1.17374301,0.12110047,1
-10.07916737,-1.419242978,0.651445985,-0.701099932,0.073607095,-0.100026235,1
-13.6851511,-1.713560104,2.821736097,-0.522732556,0.757756054,-0.576487124,1
-7.796414375,-2.306980133,4.075575352,0.465771049,0.736987233,-0.437213928,1
-5.020740032,-2.409871578,1.086939692,-0.142632842,0.440115452,-0.563048482,1
-6.894320011,-1.766202211,1.536790371,-0.775623322,0.251974493,-0.811052442,1
-8.081160545,-1.759023786,2.580060959,-0.304049224,0.262969732,-0.654675543,1
-6.980462074,-1.680060625,2.606382132,-0.029015245,0.409573078,-0.572822034,1
-8.337192535,0.571585536,2.874378204,0.270299911,0.607487619,-0.635128438,1
-9.662816048,0.868295491,1.319043517,0.196998239,0.510973752,-0.662005723,1
-10.70608711,0.506979287,1.998605132,-0.383459359,0.372922242,-0.654675543,1
-10.08634567,-0.06011967,1.575075507,-0.34436515,-0.051005747,-0.330926508,1
-10.14616585,-0.258723944,2.213959217,-0.250294656,-0.303896517,-0.147672325,1
-11.03390312,-0.316151679,-0.49232325,-0.427440375,-0.179283664,0.172411636,1
-10.07198906,0.384945333,2.032104731,-0.61680299,-0.020463383,0.165081471,1
-14.08235931,-2.512762785,4.214358807,0.13102673,0.167677566,-0.018172706,1
-13.07976723,-6.970591545,-0.303290278,-1.385248899,-0.191500619,0.953074455,1
-12.82612801,-7.190731049,4.314857483,-2.373599768,-0.402853757,0.884659529,1
-8.995218277,-7.528119087,7.638488293,0.025961008,-0.207382649,0.808914483,1
-8.413763046,-7.157231808,4.252644062,1.77542758,0.143243685,0.848008692,1
-9.143573761,-1.230209947,1.347757339,0.751647532,0.017409148,0.267703801,1
-13.09173107,0.573978305,3.142374277,-0.14507623,-0.313670069,0.06734591,1
-8.394619942,-0.900000393,1.890928149,0.000305424,-0.490815759,0.828461587,1
-3.850649834,-1.4479568,2.271386862,-0.746302664,-1.09555459,1.048366666,1
-2.661417007,-1.491027594,3.192623615,-0.751189411,-1.284917235,0.807692766,1
-5.882156372,-1.993520379,2.324028969,-0.304049224,-0.588551342,0.23105298,1
-5.997011662,-1.467099428,3.305086374,0.226318911,0.382695794,-0.219752297,1
-8.514261246,0.107377917,4.470390797,0.535407603,0.537851036,-0.851368368,1
-13.20419312,2.260918379,5.882156372,0.608709276,0.451110691,-0.68766129,1
-10.63430214,0.578763962,1.914856315,0.223875523,0.18233791,0.063680828,1
-8.478368759,-2.577368975,5.298307419,-1.230093718,-0.434617817,0.183406889,1
-9.67956543,0.681655347,10.26341438,-0.319931239,-0.325887024,-0.30527091,1
-19.27478409,-2.113161564,1.208973646,0.436450362,-0.195165694,0.391094953,1
-10.95972633,-8.167002678,4.109074593,0.21410197,-0.887866497,0.887102962,1
-1.280758262,-5.45832777,4.59242487,0.603822529,-0.645971,-0.162332654,1
-7.937591076,0.497408003,-0.00418744,0.495091707,-0.046118967,-0.852590084,1
-11.14158058,-0.82582289,-0.198006079,-0.637571812,0.442558825,-0.297940761,1
-10.92622662,-3.216252804,7.212565422,0.122474879,1.382194638,-0.780510068,1
-5.953940868,-2.426621199,0.8356933,1.457787037,1.091431379,-0.508072197,1
-6.65503788,-2.390728951,0.761515796,-0.414001733,0.420568347,-0.538614571,1
-9.040681839,-1.354636669,3.285943747,-0.218377888,0.35581854,-0.633906722,1
-6.791429043,-2.397907495,1.847857237,0.606265903,0.502421856,-0.477529854,1
-8.026124954,-0.395114839,1.584646821,0.102927767,0.474322885,-0.774401605,1
-9.619745255,-0.325722992,2.592025042,0.159125715,0.55739814,-0.599699318,1
-10.29452133,-0.550648332,1.37886405,0.155460626,0.416903257,-0.68766129,1
-10.69412231,-0.052941199,2.558525562,-0.178061977,0.058946762,-0.541057944,1
-9.926026344,0.119342029,1.462612867,0.107814543,-0.102316916,-0.194096714,1
-9.94277668,-0.440578461,0.871585667,0.016187452,-0.099873528,-0.036498122,1
-9.308678627,-0.096012011,0.754337311,-0.302827537,0.073607095,0.160194695,1
-9.492925644,0.396909446,2.936591625,-0.246629581,0.013744064,-0.024281178,1
-14.66860104,-2.984148979,2.651845694,-0.157293171,0.019852536,0.08933641,1
-12.07478142,-6.762415886,-0.121435747,-1.541625738,-0.350320905,1.270714998,1
-11.9718895,-7.305586815,4.752744198,-1.672347069,-0.470046967,0.97628665,1
-10.84965611,-7.982755661,8.306085587,0.619704545,-0.288014472,0.708735526,1
-8.787042618,-5.477469921,3.386442184,1.748550296,0.016187452,0.86999923,1
-10.57687473,0.061914288,1.749751568,0.390025973,-0.248920262,0.327566832,1
-11.97667599,0.94965148,2.970091105,0.008857286,-0.33443886,0.436297655,1
-8.059624672,-0.706181765,2.498705149,0.19455485,-0.451721549,0.922532082,1
-2.867199659,-2.015055656,2.706880569,-0.680331111,-0.991710544,1.174201131,1
-2.572882652,-2.058126688,1.967498422,-0.930778503,-1.302020907,0.872442603,1
-5.796014786,-1.730309844,2.381456852,-0.713316858,-0.931847513,0.410642058,1
-6.710072994,-1.261316657,3.412763357,-0.127972499,0.072385401,-0.206313655,1
-7.61455965,0.253340095,4.38424921,0.254417896,0.733322144,-0.7976138,1
-10.82333469,1.497607827,5.685945034,0.420568347,0.751647532,-0.934443593,1
-12.56291676,0.904187858,2.57766819,0.32038939,0.460884243,-0.359025478,1
-9.390034676,-1.170389414,4.965705395,-0.55327493,-0.284349412,0.1797418,1
-8.897112846,2.222633123,8.253443718,-0.060779303,-0.070552856,-0.253959745,1
-22.40699005,-0.584147811,-0.329611331,-0.34436515,-0.40896225,0.308019727,1
-14.69252968,-8.750851631,6.822535515,-0.659562349,-0.786465824,1.463742733,1
1.868196249,-7.863114357,5.38923502,0.371700555,-1.055238605,0.321458369,1
-7.133602619,-1.9600209,-0.71485579,0.646581829,-0.191500619,-0.454317659,1
-8.801400185,-3.020041227,1.019940615,-0.157293171,0.664907217,-0.51418066,1
-12.54856014,-0.892821968,6.241079807,0.487761527,1.387081385,-1.402352571,1
-5.219344616,-2.08923316,1.268794179,1.612942219,1.051115394,-0.702321649,1
-8.452047348,-0.208474666,0.651445985,-0.195165694,0.287403643,-0.989419818,1
-10.26819992,0.011665011,3.120838881,-0.332148194,0.201885015,-0.578930497,1
-6.839285374,-2.251945257,2.017747641,0.358261913,0.403464615,-0.37246412,1
-6.812964439,-1.424028635,2.209173441,-0.002137966,0.442558825,-0.694991469,1
-8.32762146,-0.588933468,2.48195529,-0.137746051,0.228762299,-0.647345364,1
-9.768099785,-0.679860711,2.144567251,-0.018019995,0.292290419,-0.823269367,1
-10.04806042,-0.311366051,2.721237659,0.074828789,0.165234178,-0.82204771,1
-9.717850685,0.064307109,2.134995937,0.172564358,0.01007898,-0.334591597,1
-10.25862885,-0.823430121,0.799800992,0.047951508,-0.086434886,-0.03283304,1
-10.53858948,0.291625261,1.307079315,-0.341921747,-0.20371756,0.086893022,1
-10.71565819,-0.021834506,4.913063049,0.106592849,0.282516867,-0.181879774,1
-14.41974735,-5.865107536,-0.176470667,0.308172435,0.249531105,0.460731536,1
-13.89332676,-6.968198776,-1.303490162,-1.793294787,0.018630842,0.586566091,1
-11.78524971,-6.831807613,5.918048382,-1.86659646,-0.462716788,0.796697557,1
-8.351549149,-7.977969646,8.650651932,0.677124202,0.113923013,0.83457005,1
-5.647659779,-5.606682777,2.515454769,1.413805962,-0.130415887,1.174201131,1
-10.47398281,-1.455135226,2.548954248,0.175007746,-0.361316144,0.326345146,1
-13.70668602,1.337288737,2.852842808,-0.013133216,-0.744928241,0.51937288,1
-7.549953461,-0.715753078,2.493919373,0.338714808,-0.418735802,1.014159203,1
-3.171088219,-1.505384564,2.527418852,-0.445765793,-0.837777019,1.003163934,1
-3.934398651,-2.034198284,2.54656148,-0.877023935,-1.094332814,0.624438584,1
-6.097510338,-1.759023786,3.539582968,-0.438435614,-0.688730299,0.221279413,1
-6.71964407,-1.043569803,3.970290899,0.404686302,0.186002985,-0.260068208,1
-8.126624107,0.514157772,4.554139614,0.684454381,0.721105218,-0.635128438,1
-10.41176987,1.526321769,4.168895245,0.303285658,0.612374365,-0.602142692,1
-11.64168072,-0.797109067,3.558725595,-0.875802279,0.071163706,-0.056045234,1
-8.698508263,-2.577368975,7.490133286,-1.10548079,-0.57877779,-0.142785549,1
-11.15832996,2.765803814,8.913862228,0.851826489,0.211658582,-0.737750769,1
-22.62234306,-0.131904349,-0.152542442,0.931236625,0.159125715,0.498604089,1
-12.71366501,-10.0022974,2.910270452,-1.011410356,-0.590994716,1.003163934,1
0.075972117,-7.65015316,4.551746845,0.319167703,-0.799904466,0.312906504,1
-6.533003807,-1.309173107,0.036490545,0.539072692,-0.152406394,-0.735307395,1
-12.18006516,0.320339143,0.651445985,-0.86114192,0.13469182,-0.93200022,1
-10.17966557,-3.874279022,5.980261803,0.049173206,0.917797983,-0.526397645,1
-3.824328899,-5.089832783,-0.33200413,1.092500329,1.185501814,-0.658340633,1
-7.207779884,-1.945663929,1.228116274,-0.512959003,0.52563405,-1.183669329,1
-9.849455833,-0.383150727,3.90568471,-0.263733298,0.311837524,-0.641236901,1
-6.186044693,-3.441178083,1.723430514,0.73820889,0.63192147,-0.04871507,1
-7.743772507,-0.74446696,2.465205431,0.432785273,0.833501101,-0.789061964,1
-11.66321564,1.212862015,2.907877684,0.368035465,0.619704545,-0.64856708,1
-9.646066666,-1.345065475,2.24267292,0.123696573,0.413238168,-0.304049224,1
-9.445069313,-0.751645386,2.560918331,-0.09743014,0.057725064,-0.51784575,1
-10.13898754,-0.151046932,1.05822587,-0.082769804,-0.256250411,-0.288167208,1
-10.33041382,-1.833201289,0.641874671,-0.176840276,-0.295344651,0.012369657,1
-9.251250267,-0.107976124,1.608574986,-0.368799031,-0.022906773,0.025808297,1
-10.12941647,-0.124725878,5.080560684,0.142021984,0.143243685,-0.261289924,1
-14.92463303,-5.190331459,-0.729212701,0.292290419,0.128583342,0.347113967,1
-15.26202106,-6.798308372,-1.731805444,-1.729766726,-0.091321662,0.829683304,1
-9.928419113,-7.159624577,6.267400742,-1.634474516,-0.456608325,1.125333309,1
-7.64327383,-8.67428112,7.724629879,1.221999884,0.172564358,0.878551066,1
-6.657430649,-5.271687508,1.216152072,1.284306407,-0.20005247,1.081352353,1
-9.45224762,-2.19930315,2.615953445,0.051922016,-0.025044737,-0.082006246,1
-9.208179474,-1.955235243,2.807379246,0.064138964,-0.018936265,-0.06734591,1
-9.303893089,-1.902593136,2.773879766,0.076355904,-0.087351158,-0.080784552,1
-9.581459999,-1.840379715,2.539382935,-0.040926766,-0.161874518,-0.08322794,1
-9.148359299,-2.158625126,2.441277266,-0.088572852,-0.110563353,-0.08322794,1
-9.131608963,-2.292623281,2.615953445,-0.055587102,-0.076355904,-0.038025241,1
-9.239286423,-2.235195398,3.393620729,-0.040926766,0.034818295,-0.049020492,1
-9.349356651,-2.017448664,2.814557552,-0.045813546,-0.05314371,0.015729317,1
-9.378069878,-2.156232357,2.383849621,0.034818295,0.130110472,-0.042912021,1
-9.311071396,-1.976770639,1.563111424,0.259610087,0.154544353,-0.052685577,1
-9.08853817,-2.16819644,2.814557552,0.093459629,0.115450129,-0.00503949,1
-9.059824944,-2.55104804,1.902892232,0.020157959,0.072690822,-0.044133715,1
-9.421140671,-2.596511602,1.864607096,-0.039705072,-0.003054236,-0.063680828,1
-9.349356651,-2.376372099,1.551147223,-0.070247434,0.049478628,-0.05635066,1
-8.961718559,-2.608475685,1.244866014,-0.099568106,0.198525354,-0.075897776,1
-9.454640388,-2.350050926,1.177866936,-0.103233188,0.356123954,-0.106440134,1
-9.533603668,-2.457727909,0.909870803,-0.1435491,0.298704296,-0.022143213,1
-9.789635658,-2.505584478,1.000798106,-0.150879279,0.365897506,-0.009926268,1
-9.516854286,-2.07248354,0.7399804,-0.200968742,0.242506355,0.084144212,1
-10.54337502,-1.620239973,0.402592421,-0.458746284,0.081242688,0.091474377,1
-10.34477043,-1.610668778,0.428913444,-0.505170703,0.089794546,0.158667579,1
-9.406784058,-1.842772484,0.665802896,-0.414765298,0.148435891,0.134233683,1
-9.4809618,-1.811665893,0.500698149,-0.353680551,0.104454882,-0.05635066,1
-9.602995872,-2.048555374,0.079561353,-0.453859508,-0.06291727,-0.130874023,1
-9.612566948,-2.065304995,0.337986201,-0.529604554,-0.114228435,-0.134539112,1
-9.543174744,-2.249552488,0.450448871,-0.445307642,-0.128888771,-0.068567604,1
-9.832706451,-2.335694075,0.426520646,-0.317029715,-0.108119965,-0.082006246,1
-10.08156013,-2.005484581,0.519840717,-0.298704296,-0.164317906,-0.013591352,1
-9.674779892,-1.866700768,0.907477975,-0.178978249,-0.189973503,0.109799795,1
-9.765707016,-1.854736686,0.598803878,-0.039705072,-0.119115219,0.034054734,1
-10.2275219,-2.426621199,0.081954174,0.009162709,0.06291727,0.016951011,1
-11.12004471,-2.852543592,0.474377096,-0.005497625,0.028709821,0.184323162,1
-11.05304623,-2.974577665,1.347757339,0.097124711,-0.000610847,0.260068208,1
-9.725028992,-2.965006351,1.809572101,0.1435491,-0.05314371,0.383459359,1
-7.8370924,-2.819044113,1.883749604,0.176534861,-0.134997249,0.439657301,1
-7.420741081,-3.070290565,2.436491728,0.198525354,-0.225402638,0.399341404,1
-9.356534958,-2.833401203,2.489133835,0.209520608,-0.298704296,0.470199674,1
-10.6103735,-2.687438965,2.472383976,0.387888014,-0.051922016,0.400563091,1
-10.97647572,-2.69461751,2.292922258,0.46363306,0.032374904,0.280837029,1
-9.775279045,-2.311765671,2.304886341,0.21074231,-0.119115219,0.258846521,1
-8.949754715,-1.948056698,2.702095032,0.111785047,-0.15943113,0.279615343,1
-8.717651367,-1.883450508,1.859821439,0.122780301,-0.172869772,0.253959745,1
-8.961718559,-1.366600871,1.689931035,0.05314371,-0.161874518,0.253959745,1
-8.569295883,-1.100997567,2.230708838,-0.021379653,-0.170426384,0.144007236,1
-8.330014229,-1.287637711,2.302493572,-0.088572852,-0.106898271,-0.062459134,1
-8.775078773,-0.864108086,2.486740828,-0.160652831,-0.106898271,-0.238383144,1
-9.356534958,0.009272188,2.718844652,-0.214407384,-0.083686076,-0.217614338,1
-9.595816612,-0.306580395,2.67338109,-0.240062967,-0.049478628,-0.138204187,1
-9.512067795,-0.852143943,3.405584812,-0.233954504,-0.06902574,0.002290677,1
-9.509675026,-0.966999471,3.331407309,-0.285265684,-0.147214189,0.03771982,1
-9.832706451,-0.998106122,3.068196774,-0.39643988,-0.109341659,0.092696071,1
-9.492925644,-0.555433929,6.02811861,-0.051922016,-0.023823043,0.030389652,1
-13.67318726,-3.374179125,0.046061836,0.380557835,0.411100209,0.089030989,1
-8.641080856,-2.589333296,3.02512598,0.646887243,0.6762079,-0.00503949,1
-10.18684387,-1.531705618,0.151346028,0.440420866,-0.027488127,-0.300689578,1
-9.535996437,-2.151446581,0.184845552,-0.122780301,0.059252184,-0.271368891,1
-7.844270706,-2.419442892,-0.224327117,-0.164317906,0.251058221,-0.188293666,1
-7.8370924,-3.108575821,-0.564107955,-0.384222925,-0.06902574,-0.002596101,1
-9.667601585,-2.505584478,0.742373228,-0.670099437,-0.196081966,0.008399149,1
-10.26102161,-2.548655272,0.416949332,-0.528382897,-0.08490777,-0.198067218,1
-9.88534832,-2.206481695,2.450848579,-0.277935505,0.121558607,-0.169968247,1
-9.114859581,-1.713560104,0.53180486,-0.268161952,0.158209443,-0.290915996,1
-8.88993454,-1.364207983,0.881156921,-0.255944997,0.020157959,-0.253043473,1
-9.418747902,-1.794916034,0.268594354,-0.244949758,-0.06291727,-0.242048234,1
-9.713065147,-1.703988791,-0.166899383,-0.285265684,-0.04703524,-0.245713308,1
-9.705886841,-1.991127491,0.397806764,-0.232732803,-0.020157959,-0.298246175,1
-9.753743172,-2.969791889,0.510269403,-0.150879279,0.088572852,-0.283585846,1
-9.543174744,-3.027219772,0.637089014,-0.176534861,0.022601349,-0.1797418,1
-10.23948669,-2.527119875,0.778265536,-0.103233188,0.108119965,-0.304354638,1
-11.49093246,-2.42422843,0.615553617,0.095903017,0.216850773,-0.228609592,1
-11.28514957,-2.883650303,0.488734037,0.219294161,0.187530115,-0.022143213,1
-11.67278671,-2.976970434,1.213759303,0.172869772,0.104454882,0.179436386,1
-10.42851925,-3.759423494,1.476969719,0.214407384,0.011606098,0.349251926,1
-8.86122036,-3.840779543,2.012962103,0.153322667,-0.06291727,0.433548838,1
-7.396812916,-3.639782429,2.453241348,0.153322667,-0.188751802,0.438435614,1
-7.48774004,-3.039183855,3.101696253,0.29015246,-0.304812789,0.468977988,1
-9.179466248,-2.067697763,2.431705952,0.417208672,-0.19486028,0.526397645,1
-9.162715912,-2.409871578,1.838286042,0.39643988,0.011606098,0.390789539,1
-9.241679192,-2.668296337,1.902892232,-0.048256934,-0.155766055,0.172106221,1
-9.318249702,-2.613261461,2.469991207,-0.003054236,-0.236397892,0.187988237,1
-8.743971825,-2.144268274,2.761915445,0.049478628,-0.076355904,0.256403148,1
-8.260622025,-1.428814173,2.383849621,0.136218935,0.017714571,0.187988237,1
-8.227122307,-0.92153585,2.675773859,0.034818295,-0.025044737,0.009620844,1
-8.667402267,-0.751645386,2.991626501,-0.087351158,-0.0787993,-0.122322164,1
-9.083752632,-0.701396108,3.333800077,-0.039705072,0.06291727,-0.187071979,1
-9.952347755,-0.945464075,2.525026083,-0.145992488,0.110563353,-0.035581853,1
-10.29930687,-2.034198284,3.061018467,-0.229067728,0.007941014,0.134233683,1
-10.3471632,-1.763809443,3.642474174,-0.40377003,-0.095903017,0.290610582,1
-10.51466084,-0.55304116,4.762315273,-0.060473878,-0.083686076,0.313822776,1
-11.0626173,-1.146461129,2.245065928,0.205855533,0.154544353,0.195318416,1
-9.789635658,-1.653739572,2.053640127,0.312142938,0.284043968,-0.133317411,1
-9.000003815,-1.749452472,1.524826288,0.036039989,0.043370154,-0.311684817,1
-10.05045319,-2.062912226,0.125024989,-0.104454882,-0.110563353,-0.320236683,1
-9.069396019,-2.644368172,-0.152542442,-0.20707722,0.036039989,-0.254265159,1
-7.980661869,-2.921935558,-0.135792688,-0.197303668,0.121558607,-0.23105298,1
-8.227122307,-2.082054853,-0.018544376,-0.342685312,0.093459629,-0.136982501,1
-9.602995872,-1.488634825,0.22791636,-0.270605326,0.048256934,-0.21517095,1
-11.09611702,-1.60827589,0.270987153,-0.292595834,0.104454882,-0.267703801,1
-8.954540253,-2.07248354,0.538983285,-0.264496863,0.216850773,-0.244491622,1
-9.234500885,-2.378764868,0.720837831,-0.208298922,0.093459629,-0.213949248,1
-9.83509922,-2.574976206,-0.001794617,-0.299926013,0.033596598,-0.1797418,1
-9.495318413,-2.381157637,0.127417803,-0.279157192,0.110563353,-0.207840785,1
-9.624530792,-2.16819644,0.069990061,-0.275492102,-0.022601349,-0.193180442,1
-10.03131104,-2.053340912,0.517447889,-0.158209443,-0.000610847,-0.127208948,1
-9.610174179,-2.285444736,1.53918314,0.097124711,-0.004275931,-0.110105217,1
-10.74915791,-2.053340912,-0.413360119,0.189973503,-0.086129464,0.001068983,1
-10.58405304,-1.438385487,-0.162113741,-0.081242688,-0.087351158,0.085365906,1
-9.99302578,-1.519741535,0.603589535,-0.010384403,-0.182643324,0.100026235,1
-10.30887794,-2.546262503,0.871585667,0.163096219,-0.07513421,0.125681818,1
-10.83290672,-2.096411705,0.534197628,0.19486028,-0.023823043,0.242964491,1
-11.1056881,-2.706581593,0.519840717,0.475850016,0.048256934,0.355360389,1
-9.124430656,-4.144668102,1.352542996,0.484401882,0.214407384,0.405449867,1
-6.482754707,-3.986741543,2.410170555,0.230289415,-0.027488127,0.47875154,1
-8.995218277,-2.378764868,3.695116282,0.153322667,-0.29381752,0.543501377,1
-11.61535931,-1.457528114,2.508276224,0.330468357,-0.108119965,0.536171198,1
-10.65344429,-2.141875267,1.761715651,0.287709057,0.007941014,0.335813284,1
-8.870791435,-3.082254648,1.919641972,0.285265684,-0.032374904,0.200205192,1
-8.133802414,-2.041376829,2.984447956,0.26205346,-0.064138964,0.163554356,1
-8.552546501,-1.409671664,1.579861164,0.237619579,-0.005497625,0.080479123,1
-9.03828907,-0.823430121,1.275972724,0.05314371,-0.059252184,0.035276428,1
-8.662615776,-0.639182746,2.056032896,-0.106898271,-0.109341659,0.052380152,1
-8.621937752,-0.773180842,2.312064886,-0.192416891,-0.014049487,-0.029473381,1
-8.712865829,-0.694217682,2.426920414,-0.131332159,0.103233188,-0.188293666,1
-9.394820213,-0.557826757,2.410170555,-0.120336913,0.225402638,-0.255486876,1
-9.268000603,-0.347258389,2.288136721,-0.154544353,0.147214189,-0.206619084,1
-10.06959629,-0.933499932,1.670788407,-0.424538851,-0.126445383,-0.189515367,1
-10.55294609,-1.48145628,2.97726965,-0.659104168,-0.198525354,0.010842538,1
-10.3471632,-1.538884044,2.979662418,-0.494175434,-0.153322667,0.15500249,1
-10.88794136,-0.438185632,3.850649834,-0.252279907,-0.220515862,0.266176701,1
-10.10788059,-0.208474666,3.415156126,0.004275931,-0.152100965,0.212422132,1
-10.21077251,-1.620239973,2.917448997,0.05314371,0.07513421,-0.002596101,1
-9.880562782,-2.792723179,0.993619621,0.07513421,0.08490777,-0.12110047,1
-9.177073479,-3.01525569,2.067996979,0.036039989,0.045813546,-0.152864531,1
-9.531210899,-2.682653189,1.055832982,0.051922016,0.103233188,-0.095444888,1
-8.016553879,-2.438585281,0.656231582,0.121558607,0.216850773,-0.143090963,1
-8.566903114,-2.266302109,0.024526432,0.026266431,0.092237934,-0.139425889,1
-9.674779892,-2.352443695,-0.133399859,-0.174091473,0.082464382,-0.145534366,1
-9.614959717,-1.924128532,0.799800992,-0.149657577,0.122780301,-0.180963501,1
-9.514460564,-2.048555374,0.608375132,0.003054236,0.109341659,-0.268925518,1
-9.42353344,-2.51994133,0.445663214,0.05803049,0.241284668,-0.403311908,1
-9.52881813,-2.031805515,0.507876635,0.05803049,0.163096219,-0.400868505,1
-9.52881813,-1.945663929,0.316450804,-0.094681323,0.012827792,-0.341005474,1
-9.354142189,-2.02462697,0.476769924,-0.161874518,-0.018936265,-0.292137712,1
-9.662816048,-1.814058661,0.412163705,-0.116671823,-0.051922016,-0.276255667,1
-9.973882675,-1.60827589,0.256630242,-0.073912516,-0.015271181,-0.221279413,1
-9.689137459,-2.175374985,0.474377096,0.022601349,0.05803049,-0.163859785,1
-9.674779892,-2.156232357,0.864407182,0.06902574,0.039705072,-0.085671328,1
-9.897313118,-2.036591291,0.349950314,0.045813546,0.037261683,-0.079562858,1
-10.56969547,-1.201496124,0.570089996,0.227846026,0.104454882,-0.100331664,1
-10.52901745,-1.333101273,1.091725349,0.339020222,0.070247434,0.020616096,1
-10.96929741,-2.182553291,0.455234498,0.390331388,0.125223681,0.174549609,1
-11.40479088,-2.330908298,0.9314062,0.387888014,0.183865026,0.211200446,1
-11.22772217,-3.410071373,0.713659346,0.464854777,0.132553861,0.44332239,1
-9.612566948,-4.453341961,1.388435364,0.279157192,-0.00671932,0.589925766,1
-7.657630444,-3.39810729,2.410170555,-0.051922016,-0.347572088,0.627798259,1
-8.803792953,-1.517348647,2.836092949,-0.020157959,-0.313364655,0.586260676,1
-10.30887794,-0.677467883,1.845464468,0.296260923,-0.059252184,0.37246412,1
-10.246665,-1.9600209,1.503290772,0.275492102,-0.049478628,0.244186193,1
-8.775078773,-2.716152906,1.744965911,-0.049478628,-0.132553861,0.286945492,1
-7.951947689,-1.976770639,2.556132793,-0.284043968,-0.236397892,0.245407879,1
-8.734400749,-1.38574338,1.737787485,-0.198525354,-0.198525354,0.169662833,1
-8.753543854,-0.971785069,1.646860242,-0.132553861,-0.04703524,0.112243183,1
-8.452047348,-1.045962572,2.034497499,-0.209520608,-0.040926766,0.020616096,1
-8.306085587,-1.038784146,2.460419893,-0.172869772,0.021379653,-0.079562858,1
-8.921041489,-0.498006225,2.730808735,-0.036039989,0.07513421,-0.242048234,1
-9.346963882,-0.172582328,2.539382935,0.001832542,0.144770801,-0.315349907,1
-9.466604233,-0.799501836,2.501097918,-0.144770801,0.097124711,-0.288472623,1
-10.4165554,-1.495813251,1.622931957,-0.424538851,0.059252184,-0.174855024,1
-10.66780186,-1.534098387,2.814557552,-0.450194418,-0.076355904,0.045049984,1
-10.99083233,-0.60089761,4.616353035,-0.320694804,-0.281600595,0.334591597,1
-12.34995556,-0.902393222,2.312064886,-0.081242688,-0.080020994,0.351695299,1
-10.52662468,-2.426621199,2.931805849,0.169204697,0.199747056,-0.064902522,1
-8.545368195,-2.438585281,1.606182218,0.098346412,0.092237934,-0.27869907,1
-9.000003815,-2.278266191,0.850050271,0.08490777,0.003054236,-0.38865158,1
-9.007183075,-2.68026042,-0.0951147,0.018936265,0.109341659,-0.232274666,1
-7.939983845,-3.008077145,-0.664606512,-0.169204697,0.1007898,-0.200510606,1
-8.892327309,-2.883650303,0.268594354,-0.282822281,-0.00671932,-0.139425889,1
-9.770493507,-2.115554333,0.677767038,-0.339020222,0.054365408,-0.24693501,1
-11.17747307,-1.347458243,0.438484758,-0.113006741,0.110563353,-0.190737054,1
-9.114859581,-1.945663929,0.500698149,-0.095903017,0.187530115,-0.232274666,1
-8.806185722,-1.730309844,0.929013371,-0.073912516,0.1007898,-0.281142443,1
-9.265607834,-1.945663929,0.529412031,-0.124001995,0.037261683,-0.21150586,1
-9.346963882,-2.467299223,0.280558467,-0.148435891,-0.015271181,-0.176076725,1
-9.643673897,-2.125125647,-0.001794617,-0.094681323,-0.038483378,-0.242048234,1
-10.20837975,-2.034198284,0.160917327,-0.048256934,-0.012827792,-0.229831278,1
-9.624530792,-2.352443695,0.546161771,0.032374904,0.025044737,-0.101553358,1
-9.236893654,-2.445763826,0.500698149,0.104454882,-0.045813546,-0.047798797,1
-10.43809032,-1.842772484,0.18005991,0.106898271,-0.010384403,-0.138204187,1
-10.79462147,-1.330708504,0.144167557,0.23884128,0.061695572,0.014507622,1
-10.92861938,-1.881057739,1.01036942,0.33291176,0.199747056,0.106134713,1
-11.62014484,-1.605883121,0.527019203,0.324359894,0.161874518,0.179436386,1
-11.60339546,-2.45533514,0.287736923,0.393996477,0.111785047,0.27717194,1
-9.782457352,-3.338286638,0.603589535,0.15943113,0.015271181,0.494633555,1
-7.456633568,-3.642175198,1.687538147,0.060473878,-0.246171445,0.593590796,1
-7.545167923,-2.718545675,2.998805046,0.055587102,-0.461189687,0.534949481,1
-10.67019463,-1.749452472,2.429313183,0.161874518,-0.236397892,0.51784575,1
-10.7300148,-1.677667737,1.967498422,0.345128715,0.05803049,0.244186193,1
-9.485747337,-2.407478571,1.972284079,0.260831773,0.039705072,0.144007236,1
-7.877770424,-2.204088688,2.010569334,0.032374904,-0.093459629,0.184323162,1
-8.184051514,-1.132104158,2.010569334,-0.070247434,-0.192416891,0.130568609,1
-9.236893654,-0.701396108,1.213759303,-0.049478628,-0.103233188,0.146450624,1
-8.545368195,-0.699003339,1.668395638,-0.161874518,0.015271181,0.203870267,1
-8.29890728,-1.060319543,1.907677889,-0.148435891,0.076355904,0.095139459,1
-8.844470978,-1.09621191,2.295315027,-0.192416891,0.060473878,-0.06734591,1
-9.346963882,-0.512363136,2.460419893,-0.156987742,0.028709821,-0.259151936,1
-10.16530895,0.093020983,2.960519791,-0.186308414,0.040926766,-0.315349907,1
-10.0265255,-0.720538735,2.472383976,-0.276713818,0.054365408,-0.264038742,1
-10.56490993,-2.555833578,1.694716692,-0.595576048,-0.08490777,-0.228609592,1
-11.2253294,-2.010270119,3.171088219,-0.771500111,-0.32924667,0.247851282,1
-9.516854286,0.018843478,6.308078766,0.017714571,-0.29381752,0.462869525,1
-11.9216404,-1.045962572,3.032304525,0.199747056,0.007941014,0.247851282,1
-10.277771,-2.242373943,1.098903775,0.343906999,0.32558158,-0.086893022,1
-8.365905762,-1.723131418,1.838286042,0.231511116,-0.033596598,-0.497382373,1
-10.38544846,-1.948056698,-0.107078813,-0.001832542,-0.018936265,-0.366661072,1
-8.444869041,-2.764009237,-0.107078813,-0.188751802,-0.016492875,-0.162638083,1
-6.820142746,-3.606282711,-0.437288344,-0.40010494,-0.067804046,-0.049020492,1
-7.490133286,-3.690031528,0.613160789,-0.430647314,-0.081242688,-0.216392636,1
-11.26600742,-1.940878272,0.687338293,-0.182643324,-0.044591852,-0.288472623,1
-11.21097183,-1.067497969,0.32362926,0.05803049,0.299926013,-0.223722816,1
-8.700901031,-1.931306958,0.156131685,0.005497625,0.317029715,-0.337340385,1
-8.83250618,-1.526919961,0.53180486,-0.087351158,0.036039989,-0.367882758,1
-9.148359299,-1.924128532,0.445663214,-0.142327413,-0.04703524,-0.212727562,1
-9.478569031,-2.426621199,-0.133399859,-0.32924667,-0.023823043,-0.156529605,1
-9.830313683,-2.122732878,0.213559419,-0.17531316,0.080020994,-0.168746561,1
-9.9643116,-1.907378793,0.373878539,-0.011606098,0.158209443,-0.223722816,1
-10.38544846,-1.943271041,1.01036942,0.141105711,0.109341659,-0.162638083,1
-10.38784122,-2.302194595,0.32362926,0.158209443,-0.050700322,-0.000152712,1
-9.969097137,-2.172981977,0.108275227,0.004275931,-0.056808796,-0.060015742,1
-10.37109184,-1.754238129,0.591625392,0.26205346,0.012827792,0.001068983,1
-10.60319519,-2.821436882,1.546361685,0.457524598,0.017714571,0.207535356,1
-11.30668545,-2.747259617,0.921834946,0.365897506,0.095903017,0.282058716,1
-11.62971592,-3.450749397,0.314057976,0.404991746,0.103233188,0.294275671,1
-9.440283775,-4.293023109,1.383649707,0.387888014,0.00671932,0.404228181,1
-7.236494064,-3.194717407,3.853042603,0.246171445,-0.133775547,0.527619302,1
-8.124231339,-1.979163408,3.013161898,0.246171445,-0.17531316,0.486081719,1
-10.39023399,-1.134497046,1.905285001,0.240062967,-0.072690822,0.395676315,1
-9.813564301,-1.708774447,1.950748682,0.292595834,-0.037261683,0.343143433,1
-8.301300049,-2.409871578,2.091925144,0.025044737,-0.141105711,0.211200446,1
-8.229515076,-1.993520379,2.108675003,-0.018936265,-0.138662323,0.128125206,1
-8.442476273,-1.108175993,2.182852507,0.08490777,-0.060473878,0.107356407,1
-8.806185722,-0.957428157,1.768894196,0.098346412,0.022601349,0.016951011,1
-8.944969177,-0.87367934,2.091925144,-0.071469128,0.00671932,0.026724568,1
-9.062217712,-0.943071246,2.460419893,-0.072690822,0.066582352,-0.042912021,1
-9.071788788,-0.866500914,2.601596355,-0.04214846,0.106898271,-0.12110047,1
-8.875576973,-0.550648332,2.867199659,0.015271181,0.165539607,-0.234718055,1
-9.519247055,-0.215653136,2.828914642,0.059252184,0.196081966,-0.234718055,1
-9.689137459,-1.426421404,2.168495417,-0.09101624,0.093459629,-0.168746561,1
-10.77787113,-2.074876308,1.520040631,-0.488066971,-0.108119965,0.05482354,1
-10.22512913,-0.148654103,4.936991215,-0.310921252,-0.251058221,0.343143433,1
-10.86640549,0.38973099,5.087738991,0.208298922,-0.167982996,0.310157686,1
-8.380263329,-1.19192481,6.681358814,-0.098957255,-0.074828789,-0.044897273,1
-8.303692818,-1.187139153,6.12861681,0.539988995,-0.238535851,0.041843038,1
-8.669795036,-1.220638633,4.994419098,0.538767278,-0.256861269,0.139578596,1
-8.274978638,-1.227817178,5.200201988,0.326192439,-0.220210433,0.203106716,1
-8.12183857,-0.782752097,5.50169754,0.353069723,-0.332606345,0.144465372,1
-8.44726181,0.059521463,5.58066082,0.383612067,-0.547624588,0.165234178,1
-8.877969742,-0.320937335,5.51605463,0.525328636,-0.73087877,0.308172435,1
-9.019146919,-0.529112935,4.781457901,0.597408593,-0.551289678,0.457219183,1
-7.449455261,-0.550648332,4.582853794,0.251669079,-0.35215345,0.382695794,1
-7.049853802,-0.509970307,5.858228207,-0.114839286,-0.254417896,0.102927767,1
-7.549953461,-0.289830655,6.164509296,-0.096513867,-0.137135208,-0.11331217,1
-8.294121742,0.289232433,5.291129112,-0.162485376,-0.079715565,-0.076661333,1
-7.896913052,0.179162592,5.58066082,-0.3151972,0.068109468,0.077272177,1
-9.327820778,0.406480759,5.781657696,-0.250447363,0.41262731,-0.004581355,1
-8.844470978,0.344267368,5.80797863,0.140494868,0.710720778,0.239757553,1
-7.394420147,0.619441986,4.156930923,0.168593839,1.199398637,-0.036345411,1
-7.126423836,0.435194612,4.690530777,-0.335965991,1.598892689,-0.566560805,1
-8.877969742,1.425823212,4.70488739,-0.444696814,1.777260065,-0.643527567,1
-9.093324661,1.210469127,5.719444275,-0.234565347,1.369214177,-0.363759547,1
-8.126624107,1.368395448,4.977669239,0.405602574,0.904970229,-0.174396887,1
-9.260822296,0.248554453,3.781257868,0.411711067,0.82311666,-0.184170455,1
-9.859027863,0.179162592,4.197608948,-0.0219905,0.347877502,0.205550104,1
-8.559724808,0.250947267,5.463412285,-0.262664318,-0.348488361,0.584275424,1
-8.727222443,-0.373579443,5.793622017,0.316418886,-0.206771791,0.19821994,1
-10.44287586,-0.462113887,4.010969162,0.590078473,-0.078493871,-0.404075474,1
-11.35214901,-1.52931273,3.48933363,0.659715056,-0.190889776,-0.594659805,1
-11.59143066,-1.962413669,3.120838881,0.994612038,0.233038232,-0.623980463,1
-11.3449707,-2.972184896,2.410170555,0.706292152,0.066887774,-0.051005747,1
-9.619745255,-3.177967548,3.111267567,-0.030542362,0.058335911,0.449889004,1
-8.148159027,-1.074676514,2.991626501,-0.280989736,0.035123717,0.424233407,1
-9.09571743,0.026021946,3.384049416,-0.294428378,0.160958245,-0.030236939,1
-9.971489906,1.308574915,4.085146427,-0.162485376,0.201274171,0.193333164,1
-8.842078209,1.10997057,3.972683907,-0.019547112,-0.014965758,0.526855767,1
-7.748558044,-0.244367018,2.685345173,-0.271216184,-0.339936495,0.716218412,1
-6.372684956,0.104985096,2.158924341,-0.989572585,-0.677124202,0.707666576,1
-7.155138016,-0.33050862,3.723830223,-0.827087164,-0.476766288,0.200663328,1
-9.141180992,0.652941465,3.116053343,-0.469130695,0.10964708,-0.345434129,1
-9.485747337,1.155434251,4.034897327,-0.496007979,0.184170455,-0.142632842,1
-7.841877937,0.351445824,4.278964996,-0.554649293,-0.06627693,0.392469376,1
-8.006982803,0.475872606,4.597210407,-0.746455371,-0.305729061,0.39491275,1
-9.332606316,1.260718465,5.193023205,-0.522885263,-0.110257931,0.49753508,1
-9.524032593,0.674476862,5.049454212,-0.008551862,0.118198946,0.572058439,1
-8.466404915,-0.462113887,4.482355118,0.329857528,0.312448382,0.416903257,1
-8.602795601,-0.191724911,3.987040758,0.147825032,0.736376345,0.028404398,1
-11.99342537,-2.280659199,4.84845686,-0.02443389,0.388193429,-0.229373142,1
-11.90249825,-1.998306036,0.988833964,-0.550984204,-0.032069482,-0.566560805,1
-12.42891884,-2.101197481,3.467798233,-1.446486354,0.134080976,-0.718050957,1
-10.3471632,0.703190744,6.92542696,-1.203369141,-0.179894522,0.123696573,1
-8.375477791,-2.563012123,2.206780672,-0.02687728,-0.209215179,0.332606345,1
-7.29631424,-3.01525569,-0.700498819,-0.675597072,0.096208446,-0.127972499,1
-7.621738434,-2.79033041,1.388435364,-0.849077702,-0.101706065,-0.044897273,1
-9.842277527,0.638584554,2.596810818,-0.783106208,-0.287403643,0.410794795,1
-8.715258598,-0.469292343,2.687737942,-0.069636591,-0.32038939,0.617261171,1
-8.519046783,-1.591526151,2.19242382,0.019547112,-0.038177952,0.157904014,1
-8.772686005,-1.249352574,2.125424623,-0.078188449,0.40529716,-0.20371756,1
-8.52622509,-1.120140076,2.659024239,-0.332300901,0.367424637,-0.124307416,1
-7.569096088,-0.498006225,3.515654564,-0.256555855,0.167066723,-0.054670829,1
-9.313464165,0.00209372,3.55154705,-0.107509121,0.135302663,-0.281906009,1
-10.28016472,0.736690283,3.166302681,-0.017103724,0.330773801,-0.20005247,1
-9.002396584,0.32512477,3.77647233,-0.095292173,0.259915501,-0.116977252,1
-8.825327873,0.04755735,3.491726398,-0.098957255,0.037567105,-0.250141948,1
-9.851848602,0.0738784,3.422334671,-0.124612838,0.049784053,-0.198830783,1
-9.210572243,-0.189332098,3.197409153,-0.182032481,0.222042978,-0.08154811,1
-9.646066666,-0.888036311,2.886342287,-0.489899516,0.264802277,-0.222042978,1
-10.98126125,-0.029012974,3.010769129,-0.618177414,0.168288425,-0.43706122,1
-13.70668602,-0.009870393,3.276372433,-0.206466377,-0.256861269,-0.068109468,1
-14.34317684,-1.852343798,1.304686546,0.395829022,-0.416903257,0.535407603,1
-9.887741089,-2.919542789,0.689731121,0.050089475,-0.376587331,1.21955657,1
-6.923034191,-3.058326483,1.768894196,-0.466687292,-0.624591351,1.193900943,1
-8.765507698,-2.10359025,3.702294827,-0.425149679,-0.339936495,0.765086174,1
-10.16770172,0.588335276,3.963112593,0.062306419,-0.277630091,0.376587331,1
-10.04327488,0.499800831,3.994219303,0.530215442,0.018019995,0.482874751,1
-10.29452133,0.633798897,2.347957134,0.58763504,-0.314280927,0.84083128,1
-8.691329956,0.284446806,1.910070658,0.318862259,0.072996244,1.066844702,1
-7.82273531,0.310767829,1.723430514,-0.316418886,0.176840276,0.919019699,1
-9.301499367,0.858724236,2.24267292,-0.893058717,-0.043064732,1.239103675,1
-6.686144829,-0.184546441,3.235694408,-0.778219402,-0.280073464,1.265980959,1
-6.442076683,-0.562612414,0.945763171,-0.667045236,-0.085824043,0.474322885,1
-8.490332603,1.454537034,1.402792215,-1.154501319,0.68140012,-0.374754786,1
-7.667201996,1.770389676,4.211966038,-1.698155403,0.615428627,-0.351542592,1
-10.277771,1.94028008,6.257829189,-0.660936713,-0.060168456,-0.069331162,1
-10.77069283,1.468894005,3.68075943,-0.353069723,-0.283738554,0.325276166,1
-12.59880924,1.385145187,5.83669281,-0.114839286,-0.231205687,0.204328403,1
-12.5868454,0.911366343,5.003990173,0.514333367,0.371089697,-0.141411141,1
-10.0839529,0.160020009,5.537590027,0.97628665,0.214712813,-0.694838762,1
-9.617352486,3.220440149,0.637089014,0.502116442,0.609320164,-0.386971742,1
-7.846663475,-1.412064433,2.266601324,-0.21257484,0.311226666,0.195776552,1
-8.904291153,-2.340479612,-0.47557351,-0.028098974,0.230594844,-0.289236188,1
-8.887541771,-1.311565876,-1.27477622,-0.703696012,0.289236188,-0.005803049,1
-8.140980721,-1.455135226,2.419741869,-1.165496588,0.167066723,0.247087717,1
-8.382656097,0.964008451,5.432305813,-0.759894013,0.112090468,-0.135302663,1
-9.043074608,1.511964798,2.407777786,0.249225676,0.10964708,-0.192722306,1
-10.52423191,0.392123818,0.51505506,-0.293206692,-0.269078225,-0.195165694,1
-9.93559742,-0.469292343,1.292722464,-0.504559815,-0.088267431,0.209215179,1
-10.27059269,1.401894927,1.697109461,-0.940704763,0.010689827,0.236092463,1
-8.947361946,0.243768811,4.063611031,-0.566866279,0.434617817,0.135913521,1
-8.119445801,0.375374049,2.036890268,0.202801287,0.654522836,-0.494480848,1
-8.837292671,1.279860973,2.410170555,0.10017895,0.603211641,-0.487150699,1
-9.382855415,2.524128675,3.343371391,0.222348407,-0.094375901,0.234870777,1
-8.844470978,0.327517599,3.137588739,0.454470366,0.016798299,-0.08765658,1
-10.07198906,1.255932808,3.888935089,0.597408593,0.162179947,-0.490815759,1
-11.38564873,1.519143224,4.12821722,0.694075227,-0.445002228,0.172564358,1
-11.85224915,1.004686356,2.92941308,0.810136199,-0.466992736,0.175007746,1
-11.97906876,0.411266387,2.589632273,0.867555797,-0.622147918,-0.06566608,1
-13.82632732,-0.524327278,2.855235577,0.837013483,-1.162136912,0.210436881,1
-11.6584301,-0.9526425,2.563311338,1.264606595,-1.303853512,0.925128162,1
-8.897112846,-0.940678418,2.505883455,1.172979474,-0.857934952,0.945896983,1
-6.729215622,-0.52193445,1.546361685,0.649941504,-0.207993492,0.563506603,1
-7.104888439,-0.373579443,3.429512978,-0.086740308,-0.001527118,0.193333164,1
-8.509475708,0.968794048,3.783650875,0.054976255,-0.036956258,0.106592849,1
-8.181658745,1.296610713,2.778665304,-0.007330167,-0.117588095,0.341158181,1
-7.997411251,1.830210209,2.142174482,-0.466687292,-0.001527118,0.360705316,1
-7.85144949,2.356631279,1.902892232,-0.758672297,0.573890984,0.449889004,1
-7.750950813,2.792124987,2.974876642,-0.641389608,1.039356589,0.173786044,1
-7.16710186,2.677269459,2.245065928,-0.685370624,1.288582325,-0.340547353,1
-8.497511864,1.452144265,3.029911757,-1.276670814,0.698503852,-0.292901248,1
-9.138788223,2.720340252,4.106681824,-1.571099162,-0.101706065,0.269078225,1
-9.01675415,2.957229614,5.288736343,-0.943148196,-0.043064732,0.377809018,1
-9.327820778,1.346860051,4.326821327,-0.550984204,0.272132456,-0.036345411,1
-10.46201897,1.667498231,3.96789813,-0.256555855,0.008246438,0.025961008,1
-11.68953705,1.042971611,3.417548895,-0.146603346,-0.138356909,0.501200199,1
-11.74217892,-1.227817178,3.28115797,-0.571753025,-0.551289678,0.101706065,1
-12.79502106,-0.040977087,3.738187075,-2.020682812,0.830446839,-1.592784286,1
-11.57946682,3.139084101,5.867799282,-0.580304921,0.655744553,-0.167066723,1
-7.449455261,-0.955035329,3.975076675,0.852895498,-0.413238168,1.195122719,1
-6.391827583,-2.385943174,0.27577281,0.876107693,-0.603822529,-0.12552911,1
-9.521639824,0.128913313,-0.080757767,0.627950966,0.104760304,-0.931847513,1
-10.0839529,1.088435173,0.900299549,-0.061084725,0.213491112,-0.385750055,1
-9.074181557,-0.371186614,2.034497499,-0.02443389,-0.076050483,0.024739314,1
-9.083752632,0.00209372,1.529611826,-0.508224905,-0.226318911,0.011300675,1
-9.181859016,0.652941465,2.020140409,-1.094638348,-0.333828032,-0.042453885,1
-8.787042618,1.212862015,3.958326817,-1.185043693,-0.317945987,0.265413135,1
-7.619345665,0.516550601,4.240679741,-0.527772009,-0.509752035,0.294733793,1
-8.385048866,0.236590341,3.530011654,0.091627091,-0.210436881,-0.082769804,1
-9.275178909,0.873081148,2.16131711,0.028098974,0.262358904,-0.256250411,1
-8.96889782,1.069292665,3.061018467,0.02687728,0.429731041,-0.324665308,1
-8.937790871,1.320538998,3.458226919,0.224791795,0.501811028,-0.534796774,1
-8.499904633,2.122134686,4.314857483,0.460578829,0.732711315,-0.941621065,1
-9.827920914,3.701397419,6.568896294,1.072800517,0.443169683,-0.851215661,1
-10.38784122,2.414058924,6.561717987,1.750840902,-0.425455123,-0.313670069,1
-12.2614212,0.313160658,3.666402578,1.577360392,-0.606265903,0.321611077,1
-12.47677517,-2.740081072,3.07298255,1.08257401,-0.740652323,0.209215179,1
-13.43629742,-3.500998735,4.659423828,1.720298648,-2.107728481,0.570836782,1
-12.54616737,-1.055533886,1.213759303,1.313474298,-2.692920208,1.578734756,1
-9.083752632,-0.270688057,0.603589535,0.291984975,-1.532310367,2.149266005,1
-5.602196217,-0.292223454,3.472583771,-0.685370624,0.126750812,1.327065706,1
-6.040082455,1.500000715,4.956133842,-0.629172683,0.628867269,0.036956258,1
-6.678966045,2.849552631,4.070789337,-0.568087935,0.715607584,-0.312448382,1
-6.71964407,2.229811668,4.080360889,-0.730573297,0.886644781,-0.434617817,1
-7.569096088,1.82781744,4.293322086,-0.863738,0.984380364,-0.322221935,1
-8.643473625,2.091027975,4.867599487,-1.171604991,0.92207396,-0.047340661,1
-6.966104984,0.856331408,5.504090309,-1.127624035,0.718050957,0.090710819,1
-6.667002201,0.755832851,5.214558601,-0.642611325,0.292901248,-0.064444385,1
-8.473583221,1.921137452,4.52781868,-0.339631081,0.114533864,0.076050483,1
-9.047860146,3.134298563,4.836492538,-0.10628742,-0.155460626,0.16279079,1
-10.10309505,1.968993902,3.226123095,-0.012216945,0.126750812,-0.526244938,1
-13.11326599,1.258325577,1.077368379,-0.776997685,0.597103179,-0.415070713,1
-12.01496029,1.490429401,3.953541279,-1.670056462,1.249488115,0.780968249,1
-9.040681839,-4.022634029,10.4668045,-1.513679504,0.573890984,0.403464615,1
-10.90469074,-0.512363136,9.277571678,-0.245560601,0.284349412,-1.352110386,1
-10.46441174,2.550449848,3.013161898,1.223068953,0.211047724,0.03451287,1
-8.19122982,0.238983154,3.405584812,0.907871723,-0.16279079,0.559841514,1
-8.255836487,-1.811665893,2.070389748,1.59568572,-0.520747304,0.536629319,1
-7.425527096,-2.766402006,-1.758126378,1.515053868,-0.027182704,0.013744064,1
-6.954140663,-2.055733681,-2.468794823,-0.372616827,0.554343879,-0.999040663,1
-9.409176826,0.751047194,3.101696253,-1.084864736,0.402853757,-0.656966209,1
-10.14616585,1.069292665,4.850849628,-0.389720559,0.193944007,-0.391858518,1
-9.825528145,0.191126704,3.08973217,0.371395141,0.428509355,-0.686286867,1
-8.564510345,-0.029012974,1.481755376,0.194249421,0.352764279,-0.61420691,1
-8.416155815,0.944865823,2.539382935,-0.130721316,0.234259918,-0.372311413,1
-8.334799767,0.856331408,2.568096876,0.150268421,0.123085722,-0.162179947,1
-9.059824944,-0.131904349,1.596610904,-0.012216945,0.057114217,-0.439504594,1
-9.4809618,0.473479778,2.221137524,-0.452026963,0.394301891,-0.51158458,1
-8.942576408,0.971186876,3.077768087,-0.712247908,0.226929754,-0.416292399,1
-8.983254433,0.511764944,3.348157167,-0.44958359,0.154849783,-0.461495101,1
-8.413763046,0.729511797,3.561118364,-0.091627091,0.164623335,-0.571447611,1
-10.60080242,0.569192708,4.4488554,0.222348407,0.070552856,-0.516471386,1
-13.48654652,-0.292223454,4.310071945,0.482569337,0.047340661,-0.151184693,1
-12.80219936,-1.952842355,2.501097918,1.153432369,-0.054059982,-0.116977252,1
-13.06540966,-2.917150021,2.046461582,1.213295341,-0.375365645,-0.110868774,1
-13.12523079,-1.971984982,0.984048307,0.764933467,-0.84449631,0.934901714,1
-10.6797657,-2.991327524,1.340578914,-0.008551862,-1.167023659,1.944021344,1
-7.030711174,-2.235195398,1.847857237,-0.670710266,-0.474322885,1.423579574,1
-7.511668682,1.217647672,5.496912003,-0.675597072,0.211047724,0.072385401,1
-9.847063065,1.758425593,6.482754707,0.405602574,-0.022295926,0.008857286,1
-9.428318977,0.267697036,3.506083488,0.3151972,-0.32038939,0.425455123,1
-6.3343997,-0.186939269,2.836092949,-0.234565347,-0.502421856,0.397356153,1
-5.382056236,-0.794716239,2.99401927,0.207688063,-0.033291176,-0.374754786,1
-7.406384468,0.138484612,2.982055187,0.256555855,0.300231427,-0.771805525,1
-7.944769382,0.071485579,2.601596355,0.084296919,-0.02351762,-0.53968358,1
-8.373085022,-0.529112935,2.477169752,-0.050089475,0.031458635,-0.126750812,1
-9.160323143,0.38973099,3.563511133,-0.127056226,-0.315502614,0.438893765,1
-9.162715912,1.04536438,4.405784607,-0.146603346,-0.539072692,0.987434566,1
-8.758329391,1.531107426,4.501497746,-0.22845687,-0.642916739,0.851826489,1
-11.59860992,2.459522486,4.740779877,-0.142938256,-0.273965001,0.142021984,1
-11.33061314,1.49282217,5.831906796,0.186919257,-0.259304672,0.899472594,1
-8.502297401,-1.488634825,4.805386066,-0.056197949,0.251363635,-0.134080976,1
-10.2275219,-2.036591291,3.874577999,-0.879620075,1.087002754,-2.295411348,1
-13.16590881,1.44496572,6.444469452,-0.521663547,0.212269425,-0.845107198,1
-11.60339546,-2.316551447,7.380063057,0.741721272,-0.375365645,1.055849433,1
-7.042675018,-3.211467028,1.716252089,1.73740232,0.016798299,0.722326875,1
-5.839085579,-2.383550406,-1.150349498,1.07890892,0.594659805,-0.776692271,1
-8.50469017,-1.175175071,1.326221943,-0.204022989,0.467603564,-0.876871228,1
-10.08873844,-0.52193445,3.276372433,-0.032985751,-0.476766288,0.088267431,1
-9.291928291,-0.634397089,2.587239504,0.269994497,-0.758977711,0.56839335,1
-7.648059368,0.097806625,1.821536183,-0.063528113,-0.231205687,-0.024128467,1
-7.561917782,1.952244163,3.668795347,-0.399494112,0.347877502,-0.711942494,1
-7.968697548,1.602892041,4.278964996,-0.054976255,0.336882263,-0.588551342,1
-7.944769382,0.674476862,3.879363775,0.168593839,-0.065055236,-0.396745294,1
-8.985647202,0.937687397,2.237887383,-0.441031724,0.094986752,-0.835333645,1
-10.43809032,1.38035953,4.391427994,-0.752563834,-0.060168456,-0.633754015,1
-9.634101868,1.102792144,5.635695457,-0.313975483,-0.098040983,0.01007898,1
-8.619544983,0.188733891,6.355935097,0.18569757,-0.475544602,0.104149461,1
-9.392427444,0.813260615,6.262615204,0.924975455,-0.992321372,0.06139015,1
-10.80179977,-0.500399053,5.015954494,1.226734042,-1.143811464,0.226318911,1
-11.80917835,-1.811665893,3.623331785,1.245059371,-1.157250166,0.067498624,1
-12.01735306,-3.304787159,3.183052301,0.299315155,-1.560409307,0.071163706,1
-10.65344429,-1.172782183,4.60678196,-0.720799744,-2.453468084,0.919019699,1
-6.181259155,-0.653539658,7.415955544,-0.492342889,-1.316070437,1.57018292,1
-8.624331474,-0.675075114,8.274978638,0.149046734,-0.348488361,0.040621344,1
-9.268000603,0.518943429,6.671787739,0.357956499,0.327108711,-0.556787252,1
-7.370491982,0.813260615,5.185844898,0.162485376,0.280684322,-0.175618589,1
-6.154938221,0.456730008,5.300700188,-0.290763289,0.185392141,0.539072692,1
-5.834300041,0.454337209,6.047261238,-0.117282674,-0.117588095,0.772416353,1
-4.697709084,0.183948234,4.920241356,-0.01099525,-0.550067961,0.834722757,1
-5.657230854,-0.072083779,4.752744198,-0.265107721,-0.482874751,0.696671307,1
-6.633502483,0.873081148,5.413163185,-0.338409394,-0.255639583,0.56472832,1
-5.568696499,1.763211131,7.767700672,-0.081853531,-0.249531105,0.374143958,1
-6.133402824,1.595713615,7.779664516,0.423927993,-0.358261913,0.052838288,1
-8.849256516,1.543071508,5.370092392,0.059863031,-0.15057385,0.121253178,1
-8.978468895,1.73210454,7.56670332,-0.361621588,-0.16645588,0.499978483,1
-6.135795593,1.803889155,7.985447407,0.031764057,-0.062611841,0.526855767,1
-7.10249567,1.229611754,9.172286987,0.223570094,0.544570327,-0.189057231,1
-11.29711437,-1.22542429,6.903891563,0.201579601,0.840220392,-0.879314601,1
-9.32303524,0.447158724,7.236494064,-0.700030982,0.678956747,-0.51158458,1
-6.724429607,0.698405087,8.387441635,-0.064749807,-0.19455485,-0.085213192,1
-6.707680225,-1.759023786,5.654838085,0.370173424,-1.247655511,0.055281676,1
-8.96889782,-0.040977087,4.752744198,0.167372152,-1.369825006,-0.025350161,1
-7.35852766,0.43758744,5.221737385,0.197914511,-0.590383887,0.225097209,1
-6.250650883,0.090628155,6.040082455,0.166150451,-0.376587331,-0.031458635,1
-7.528418064,0.109770738,5.482554913,0.030542362,-0.405908018,-0.06566608,1
-6.566503525,0.648155808,6.533003807,-0.379947007,-0.144465372,0.000305424,1
-5.654838085,1.064507008,7.095317364,-0.18569757,-0.123696573,-0.209826037,1
-5.587839127,0.956829965,6.815357208,-0.196692824,-0.346044958,-0.252585351,1
-6.877570629,1.339681625,7.052246571,-0.098957255,-0.421790034,-0.336882263,1
-7.212565422,1.011864901,6.12861681,-0.098957255,-0.159125715,-0.086434886,1
-6.382256031,0.959222794,6.781857491,-0.387277156,-0.073607095,0.123696573,1
-5.370092392,1.20568347,8.059624672,-0.335965991,-0.223875523,0.227540597,1
-5.528018475,0.748654366,8.045268059,-0.064749807,-0.455997467,-0.00335966,1
-6.131010056,1.296610713,7.633702278,-0.037872531,-0.488983244,-0.273354143,1
-7.150352478,-2.070090771,3.881756544,-0.184934005,0.109799795,-0.093612343,1
-8.674580574,-1.060319543,2.324028969,-0.028557109,0.217308909,-0.214560106,1
-9.65803051,-0.608076036,1.388435364,-0.206924513,0.360247165,-0.1937913,1
-9.650852203,-1.797308922,2.003390789,-0.421942741,0.310157686,-0.118046232,1
-9.301499367,-1.206281662,3.893720627,-0.2948865,0.015729317,-0.072843537,1
-9.251250267,-1.371386528,3.836292982,0.004428643,-0.134539112,0.078646585,1
-8.799007416,-2.290230274,2.228316069,-0.055434387,-0.05635066,0.050547611,1
-8.81097126,-1.596311808,2.678166628,-0.244797036,0.100026235,-0.265871257,1
-9.093324661,-0.428614348,3.541975737,0.284196675,0.356582075,-0.366050214,1
-9.026325226,-0.414257407,3.436691523,0.37093699,0.311379403,-0.265871257,1
-9.186644554,-1.005284667,2.845664263,-0.027335415,-0.006261184,-0.164470628,1
-9.445069313,-1.01724875,3.084946632,-0.202037737,-0.085671328,-0.201121464,1
-8.588438988,-1.301994562,2.54656148,0.041079476,0.024281178,-0.254876018,1
-9.076574326,-1.507777333,3.142374277,0.12659809,0.18310146,-0.407587826,1
-9.9140625,-1.086640596,3.204587698,0.245102465,0.119573347,-0.413696319,1
-10.29930687,-1.117747307,3.230908871,0.231663823,-0.034360159,-0.304965496,1
-10.01216793,-0.562612414,3.175873756,0.390484124,-0.066124216,-0.286640078,1
-11.67757225,1.267896891,4.329214573,0.616497576,-0.006261184,-0.164470628,1
-11.38564873,-0.622433007,3.415156126,0.474781036,-0.034360159,0.442711562,1
-10.88315582,-0.799501836,3.393620729,0.372158706,-0.050242186,0.53189528,1
-9.751350403,-2.682653189,4.109074593,0.030084228,-0.239604831,0.657729805,1
-7.880163193,-2.476870537,4.829314232,0.196234688,-0.433854252,0.542890489,1
-7.140780926,-2.29501605,5.930012703,0.196234688,-0.711178899,0.627187431,1
-8.619544983,-1.76859498,4.666602135,0.066735066,-0.573127449,0.410947502,1
-9.9140625,-1.134497046,3.845864296,-0.336424142,-0.359330893,0.303438365,1
-9.09571743,-1.589133382,2.946162939,-0.474475622,-0.233496368,0.470810533,1
-7.514061451,-2.316551447,3.819543123,-0.646734536,-0.268925518,0.447598338,1
-6.753143787,-2.02462697,5.506483078,-0.56365931,-0.499825776,0.401173949,1
-7.255636692,-2.074876308,5.451447964,-0.382848531,-0.597561359,0.309546858,1
-8.090731621,-1.627418518,5.240880013,-0.296108216,-0.432632565,0.2948865,1
-7.320242882,-0.943071246,5.059025288,0.080173701,-0.10521844,0.153169945,1
-7.454240799,-0.655932486,4.345963955,0.141258433,0.240521103,0.056656085,1
-7.482954502,-0.517148793,5.367699623,-0.038330667,0.253959745,-0.015423893,1
-7.076174736,-0.275473714,4.948955536,0.082617089,0.359025478,-0.148588598,1
-7.547560692,-0.275473714,5.463412285,-0.160500124,0.371242434,-0.209673315,1
-8.341978073,-0.29700911,6.375077724,-0.300994992,0.311379403,-0.155918762,1
-9.734601021,-0.533898532,6.075974941,-0.18126893,0.306492627,-0.055739813,1
-9.160323143,-0.593719125,6.482754707,-0.151948258,0.056045234,0.125070974,1
-8.164909363,-0.026620151,6.600003242,0.191347897,0.016951011,0.147061482,1
-10.23230743,1.191326618,7.5954175,0.567629814,0.332148194,0.041995749,1
-10.5170536,-0.8569296,4.685744762,0.03130592,0.280837029,0.283891261,1
-11.48136139,-3.713959932,3.28115797,-0.462258667,0.456761032,-0.028862532,1
-8.126624107,-2.914757013,3.970290899,0.028862532,0.219752297,-0.086282179,1
-6.49232626,-2.060519457,3.106482029,0.201121464,0.007177455,-0.217003495,1
-6.808178425,-1.668096542,2.781058073,0.107050985,0.172106221,-0.484554589,1
-9.787242889,-0.914357364,3.070589542,0.114381149,0.514333367,-0.627492845,1
-9.866206169,-2.046162367,2.199602127,0.133928254,0.519220173,-0.462564081,1
-8.676973343,-2.070090771,3.417548895,0.252432644,0.326039732,-0.355054975,1
-8.851649284,-1.045962572,4.685744762,0.530978978,0.151337415,-0.337951243,1
-8.822935104,-1.100997567,1.996212244,0.491884768,0.153780803,-0.219446883,1
-8.641080856,-1.72073853,2.151745796,0.141258433,0.471421361,-0.461342394,1
-9.500103951,-0.304187566,3.142374277,0.337951243,0.547319174,-0.557856262,1
-8.971290588,-0.371186614,2.812164783,0.516318619,0.48241663,-0.374602079,1
-8.837292671,-1.435992718,2.175673962,0.175465882,0.299162447,-0.375823766,1
-9.595816612,-1.105783105,2.560918331,0.070400149,0.179436386,-0.443016976,1
-9.174679756,-1.038784146,2.821736097,0.318404138,0.144007236,-0.422248155,1
-9.55035305,-1.218245864,2.54656148,0.356276661,0.141563848,-0.47722441,1
-10.7300148,-0.718145907,2.678166628,0.201121464,0.130568609,-0.577403367,1
-10.6295166,0.06669993,3.017947674,0.168135703,0.103691325,-0.422248155,1
-11.29232788,0.514157772,2.83370018,0.238993987,-0.038025241,-0.220668569,1
-12.75912857,-0.536291361,2.998805046,0.087503873,-0.254265159,0.260679066,1
-11.78764248,-2.158625126,2.723630428,-0.016340164,-0.556023717,0.636960983,1
-10.84008503,-3.936492443,3.77647233,-0.228915006,-0.722174168,0.777455866,1
-8.011768341,-3.685245991,4.757529736,-0.068873025,-0.957961202,0.840983987,1
-6.774679184,-3.587140322,5.05423975,0.127819791,-0.755159914,0.660173178,1
-8.705686569,-1.869093537,4.724030018,0.342838019,-0.189515367,0.3229855,1
-9.047860146,-0.823430121,4.267001152,0.186461121,0.108578101,0.337645829,1
-9.531210899,-0.660718143,2.721237659,0.116824538,0.0865876,0.52823019,1
-8.91146946,-1.201496124,2.264208317,-0.258235693,-0.038025241,0.716371119,1
-7.059424877,-1.751845241,3.958326817,-0.572211146,-0.439962745,0.749356866,1
-7.071389198,-2.172981977,5.114060402,-0.581984699,-0.636655569,0.52823019,1
-7.511668682,-1.601097465,4.65463829,-0.337645829,-0.502269149,0.293664813,1
-7.671987534,-0.842572689,4.034897327,-0.331537336,-0.147977754,0.154391646,1
-7.789236069,-0.328115791,4.484747887,-0.384070218,0.120795049,0.071316421,1
-7.482954502,-0.268295228,4.209573269,-0.23624517,0.295497358,-0.034971006,1
-7.176673412,-0.230010077,4.140181541,-0.299773306,0.282058716,-0.221890271,1
-8.676973343,-0.067298137,5.171487808,-0.684607089,0.102469631,-0.157140464,1
-9.926026344,-0.163011044,5.815157413,-0.756687045,0.175771296,-0.136371657,1
-9.574281693,-0.03379862,5.812764645,-0.456150204,0.225860775,0.068873025,1
-9.361320496,-0.119940236,6.315257072,-0.260679066,0.075592346,0.176382139,1
-8.55493927,0.621834755,8.291728973,0.165692315,0.025502874,0.257013977,1
-14.61595917,-1.275673628,4.956133842,0.032527618,0.23441264,0.376740038,1
-10.54576778,-5.336293697,2.123031855,-0.175160453,0.417666823,0.453706801,1
-6.60478878,-2.708974361,3.319443226,0.278088212,0.03283304,0.089641832,1
-5.879763603,-1.136889815,4.329214573,0.377045482,-0.102775052,-0.102164201,1
-6.46361208,-1.876272082,0.790229678,0.115602843,0.13912046,-0.4381302,1
-11.34975624,-1.246959686,2.960519791,-0.110410646,0.785549581,-0.979340851,1
-10.96690464,-2.232802629,1.393221021,0.353833288,0.877176642,-0.835180938,1
-8.207980156,-2.278266191,2.199602127,0.30007872,0.422553599,-0.353833288,1
-9.162715912,-1.306780219,4.831707001,0.231663823,0.111021489,-0.221890271,1
-8.712865829,-1.904985905,2.020140409,0.258541107,0.091474377,-0.13026318,1
-8.691329956,-3.393321514,0.806979418,0.034971006,0.37246412,-0.516318619,1
-9.562317848,-1.596311808,1.984248161,0.319625825,0.418888509,-0.815633774,1
-9.820742607,-0.299401939,3.994219303,0.384375632,0.302827537,-0.600615561,1
-8.464012146,-1.687239051,1.981855392,0.347724795,0.245407879,-0.372158706,1
-9.559925079,-1.644168258,2.048854351,0.061848287,0.159889266,-0.445460349,1
-9.332606316,-0.739681304,2.618346214,0.337951243,0.228304163,-0.50165832,1
-9.641280174,-0.399900496,2.261815548,0.44179529,0.319931239,-0.574959993,1
-10.52183914,-0.007477571,2.874378204,0.116824538,0.268620074,-0.486997992,1
-10.0145607,-0.251545489,3.379263878,0.015423893,-0.009926268,-0.118046232,1
-9.976275444,-0.500399053,3.640081406,0.053296424,-0.177298412,0.099415392,1
-11.75414276,-0.021834506,3.96789813,0.136371657,-0.253043473,0.32665056,1
-11.89053345,-2.735295296,2.625524759,0.094834037,-0.254265159,0.797002971,1
-10.40219784,-3.955634832,2.572882652,0.307408869,-0.336118698,0.893516839,1
-9.777671814,-3.567997694,3.178266764,0.121711314,-0.998277128,0.954601526,1
-9.069396019,-2.737688303,4.281357765,0.050853033,-1.098456025,0.952158153,1
-7.88494873,-1.952842355,4.444069862,0.199899763,-0.576792538,0.6381827,1
-8.521439552,-1.158425212,3.829114437,0.085060477,-0.428967476,0.633295894,1
-9.346963882,-0.474078,3.159124136,-0.25945738,-0.306798041,0.691937208,1
-8.473583221,-1.517348647,3.061018467,-0.507461369,-0.444849521,0.872748017,1
-7.992625713,-1.979163408,3.960719585,-0.487914234,-0.534033239,0.707819283,1
-7.573882103,-2.409871578,4.226323128,-0.359636337,-0.52670306,0.592979968,1
-6.891927242,-1.653739572,4.436891556,-0.183712319,-0.360552609,0.314433634,1
-7.191030025,-0.088833541,4.465605259,-0.304660082,0.049936764,-0.045966256,1
-7.633702278,0.408873558,4.86281395,-0.359636337,0.295497358,-0.118046232,1
-7.258029461,-0.048155557,4.125824451,-0.2521272,0.332148194,-0.147366896,1
-6.743572235,0.516550601,4.444069862,-0.353527844,0.207535356,-0.297635317,1
-9.60778141,0.305982202,4.968098164,-0.682163656,0.181879774,-0.403922737,1
-10.68933678,0.064307109,5.346164227,-0.751800239,0.272285163,-0.166914016,1
-9.457033157,-0.541077018,6.535397053,-0.401173949,0.15500249,0.247240424,1
-9.023932457,1.368395448,8.519046783,0.411252916,0.092696071,0.161721811,1
-13.66361523,0.169591308,7.109674454,0.582290173,0.21853061,0.445154935,1
-11.84985638,-5.336293697,1.256830096,-0.145839781,0.522885263,0.418277651,1
-7.164709091,-2.086840391,1.735394597,0.124154702,0.509446621,0.022448637,1
-6.336792469,-1.546062589,3.55154705,-0.140953004,0.067040488,-0.274423122,1
-6.767500877,-3.273680449,3.15433836,-0.199594349,0.060932014,-0.513875246,1
-10.134202,-2.00787735,3.618546009,-0.07009472,0.056045234,-0.886492074,1
-9.808777809,-2.472084999,1.606182218,0.593285382,0.219752297,-0.518762052,1
-7.760521889,-2.16819644,1.228116274,0.5089885,0.17088452,-0.400257677,1
-9.11725235,-0.900000393,3.242872953,0.346503109,0.337034971,-0.472337633,1
-9.318249702,-1.651346684,3.338585854,0.524870515,0.456761032,-0.511431873,1
-9.009575844,-2.630011082,1.103689432,0.664143682,0.535102189,-0.632379651,1
-9.571888924,-1.045962572,1.814357758,0.397814274,0.598630309,-0.759435833,1
-10.33041382,0.215054929,4.195216179,0.43446511,0.613290668,-0.594507098,1
-8.12183857,-1.050748229,2.627917528,0.449125439,0.313822776,-0.36360684,1
-8.729615211,-1.378564954,2.139781713,0.042301174,0.067040488,-0.432021737,1
-9.67956543,-0.694217682,2.280958176,0.12048962,0.196540102,-0.598172188,1
-9.112466812,-1.165603757,1.752144337,0.235328913,0.284502119,-0.667808771,1
-9.725028992,-1.184746265,3.393620729,0.066735066,0.255181432,-0.637266397,1
-9.99302578,-0.419043064,4.144967079,-0.021226943,-0.158972993,-0.390484124,1
-10.47398281,0.057128642,3.747758389,0.069178455,-0.387429863,-0.015423893,1
-12.42891884,0.384945333,3.037090063,0.164470628,-0.201732308,0.297329903,1
-12.45763302,-2.232802629,2.86480689,0.17424418,-0.233496368,0.717592835,1
-12.07956696,-3.639782429,1.615753531,0.080173701,-0.516929507,0.948493063,1
-8.820542336,-3.649353743,4.365106583,-0.016340164,-0.637877226,1.002247691,1
-8.186444283,-3.651746511,4.829314232,0.089947261,-0.867555797,0.977813721,1
-8.006982803,-2.251945257,4.424927235,0.309852272,-0.501047492,0.656508088,1
-8.777471542,-1.397707582,3.850649834,0.246324152,-0.377656311,0.574654579,1
-10.44526863,-0.940678418,2.821736097,-0.009009997,-0.187071979,0.625965714,1
-9.502496719,-1.316351533,2.462812662,-0.049325917,-0.193180442,0.718814492,1
-7.382455826,-1.759023786,3.29551506,-0.199594349,-0.466840029,0.816550076,1
-6.434898376,-2.082054853,4.594817638,-0.33031565,-0.574349165,0.654064715,1
-6.238687038,-1.199103236,4.010969162,-0.171495363,-0.492495596,0.321763784,1
-6.937391281,-0.612861693,4.109074593,-0.423164427,-0.2506001,0.020005248,1
-8.231907845,-0.383150727,4.491926193,-0.325428873,0.009620844,-0.111937761,1
-8.265407562,-0.218045965,3.924827337,-0.106745556,0.181879774,-0.110716067,1
-7.655237675,-0.174975157,4.444069862,-0.164165199,0.128125206,-0.137593344,1
-8.152944565,0.236590341,5.240880013,-0.279004484,0.18676655,-0.241437376,1
-9.593423843,0.552442908,6.253043652,-0.401173949,0.428662062,-0.325734288,1
-10.5098753,0.466301322,6.102295876,-0.263122469,0.421331882,-0.188904509,1
-9.729815483,0.107377917,6.131010056,-0.09575031,0.245407879,0.005344913,1
-10.89033413,1.20568347,7.162316322,0.247545853,0.115908265,0.018783553,1
-11.70150089,-1.859522343,4.51346159,0.102164201,0.354138702,0.475697309,1
-9.966704369,-4.572983265,1.582253933,-0.298551589,0.363912255,0.200816035,1
-6.73400116,-2.017448664,2.467598438,0.053296424,0.165997744,-0.072843537,1
-6.528218269,-1.335494161,2.888735056,-0.200816035,-0.052685577,-0.257319421,1
-7.868198872,-1.706381679,2.11585331,-0.381626815,0.119573347,-0.548082709,1
-11.12961674,-1.749452472,3.156731367,-0.074981503,0.421331882,-0.702016234,1
-10.36151981,-2.577368975,1.247258782,0.202343151,0.236856028,-0.450347155,1
-8.066802979,-1.900200248,2.137388945,0.085060477,-0.018478129,-0.207229927,1
-8.507082939,-1.100997567,3.84107852,0.058183201,0.038941514,-0.33550787,1
-9.124430656,-1.955235243,2.261815548,0.286640078,0.289388895,-0.396592587,1
-8.815756798,-2.412264347,1.627717614,0.254876018,0.384681076,-0.515096962,1
-9.315856934,-1.060319543,2.371885538,0.278088212,0.321152955,-0.604280651,1
-9.459425926,-0.598504782,3.649652719,0.362385124,0.294275671,-0.386819035,1
-8.485547066,-1.629811287,2.496312141,0.30007872,0.244186193,-0.330621094,1
-8.547760963,-1.199103236,2.472383976,0.056961507,0.087809294,-0.416139692,1
-9.289535522,-0.431007177,2.627917528,0.192569599,0.087809294,-0.474781036,1
-9.873384476,-0.210867494,2.33838582,0.251210928,0.335813284,-0.502879977,1
-10.70847988,-0.5697909,2.931805849,0.009315421,0.403006464,-0.460120708,1
-10.92861938,-0.280259341,3.683152199,-0.040774055,0.13912046,-0.214560106,1
-11.18704414,-0.084047899,3.723830223,0.109494373,-0.024586603,-0.004428643,1
-12.18724346,-0.289830655,3.283550978,0.136371657,-0.155307919,0.281447887,1
-12.5940237,-1.613061547,3.460619688,0.144923508,-0.107661828,0.644291162,1
-11.89292717,-2.534298182,2.991626501,0.303743809,-0.328788549,0.850757539,1
-7.444669247,-3.522534132,2.644667149,0.214560106,-0.817466319,1.096318126,1
-7.124031067,-3.465106249,4.312464714,-0.183712319,-1.237729311,1.141520858,1
-8.990432739,-2.572583437,4.290929317,0.058183201,-0.807692766,0.678498566,1
-9.746564865,-1.471885085,3.661616802,0.186461121,-0.102775052,0.380405128,1
-9.512067795,-1.41685009,2.015354872,0.122933008,-0.112548605,0.530673563,1
-8.952147484,-0.935892761,2.580060959,-0.242353648,-0.190737054,0.658951461,1
-7.157530785,-1.380957723,4.771886349,-0.414612591,-0.414307147,0.782342613,1
-6.592824459,-1.412064433,4.633102894,-0.35841462,-0.676971495,0.614970505,1
-7.092924595,-0.888036311,3.664009571,-0.289999723,-0.541363358,0.337645829,1
-7.403991699,-0.098404832,3.589832067,-0.341310918,-0.072232686,0.068873025,1
-8.016553879,0.442373097,4.125824451,-0.418277651,0.274728566,-0.055739813,1
-7.743772507,0.040378883,4.410570145,-0.452485114,0.423775285,-0.088725567,1
-7.743772507,-0.079262249,5.446662426,-0.60275352,0.229525864,-0.157140464,1
-8.870791435,0.114556387,5.750551224,-0.539225399,0.125681818,-0.221890271,1
-10.71087265,0.619441986,5.506483078,-0.318098724,0.20264858,-0.097277425,1
-10.13659477,0.176769778,5.047060966,-0.211811289,0.251516372,0.078646585,1
-8.887541771,1.746461391,6.956533432,0.088725567,0.206313655,0.134844527,1
-13.50808239,-0.890429139,5.628517151,-0.247240424,0.400563091,0.232580096,1
-12.05563831,-5.06111908,2.718844652,-0.435381383,0.62672931,0.041995749,1
-7.013961315,-2.917150021,4.298107624,-0.041995749,0.409114957,-0.017867282,1
-6.111867428,-2.682653189,2.879163742,0.085060477,-0.057572354,-0.17424418,1
-6.92542696,-2.268694878,1.6181463,-0.160500124,-0.057572354,-0.521205425,1
-10.70130062,-1.323530078,2.958127022,-0.063986249,0.158667579,-0.736223638,1
-9.65803051,-2.450549603,0.77108711,0.44179529,0.246629581,-0.33184278,1
-8.207980156,-2.507977247,1.421934843,0.108272679,0.073148958,-0.220668569,1
-9.428318977,-1.81645143,4.252644062,-0.07009472,-0.038025241,-0.232885525,1
-8.641080856,-2.003091574,2.685345173,0.5089885,0.140342161,-0.229220435,1
-8.425726891,-2.713759899,1.118046403,0.497993231,0.383459359,-0.479667813,1
-9.794421196,-1.179960608,2.405385017,0.384375632,0.625507593,-0.791199923,1
-10.11266708,-0.143868461,3.467798233,0.568851531,0.565644562,-0.616497576,1
-9.076574326,-1.234995604,2.163709879,0.547777295,0.397966981,-0.391094953,1
-8.648259163,-1.574776411,2.185245275,0.238688573,0.241590098,-0.448514611,1
-9.059824944,-0.643968403,2.618346214,0.264344156,0.168288425,-0.592674553,1
-9.442676544,-0.416650236,1.783251047,0.374296665,0.285571098,-0.578014195,1
-9.981060982,-0.916750193,2.81695056,0.131179452,0.351542592,-0.554802001,1
-10.16291618,-1.364207983,3.120838881,0.090863533,0.090099968,-0.436297655,1
-10.00977516,-1.163210869,3.226123095,0.09575031,-0.170120955,-0.28602922,1
-10.48355389,0.176769778,3.819543123,0.200816035,-0.14690876,-0.233496368,1
-11.91685486,1.23679018,3.429512978,0.31932041,-0.038177952,0.007177455,1
-12.38584805,-1.440778375,2.632703066,0.215476364,-0.041843038,0.597255886,1
-12.36670589,-2.012662888,2.261815548,0.040774055,-0.512195408,0.79028362,1
-8.76072216,-3.060719252,2.644667149,-0.05207473,-0.821284115,1.065164924,1
-7.023532867,-3.991527319,4.147359848,-0.330621094,-1.259872437,1.193442822,1
-7.983054638,-3.139682293,4.944169998,-0.198678076,-0.98254782,0.990641534,1
-9.19621563,-1.770987868,4.099503517,-0.023975754,-0.348488361,0.619246423,1
-10.08873844,-1.220638633,2.89830637,-0.003206948,-0.165234178,0.589925766,1
-10.24427223,-1.132104158,1.835893154,-0.116824538,-0.06627693,0.649788797,1
-7.571488857,-0.966999471,3.211766243,-0.458898991,-0.303285658,0.877023935,1
-6.710072994,-1.220638633,5.063810825,-0.557856262,-0.567171693,0.814717531,1
-6.600003242,-1.270887971,4.130609989,-0.433243424,-0.63192147,0.596034229,1
-7.226922512,-0.500399053,3.884149313,-0.451568842,-0.409573078,0.244186193,1
-7.765307903,-0.131904349,3.963112593,-0.417361379,-0.005192202,0.023059484,1
-7.674380302,-0.158225402,4.546961308,-0.369715303,0.27457583,-0.117435388,1
-7.540382385,-0.131904349,4.149752617,-0.231663823,0.40896225,-0.300689578,1
-8.471190453,-0.24197419,5.362913609,-0.410031229,0.465160191,-0.373991221,1
-10.40219784,-0.512363136,6.097510338,-0.543195903,0.280684322,-0.260373652,1
-9.937990189,-0.325722992,5.669195175,-0.286640078,0.147519618,0.068262182,1
-9.136395454,0.535693169,6.61914587,0.153169945,-0.054059982,0.131790295,1
-14.09671593,1.925923109,5.496912003,0.465923756,0.146297917,0.126903519,1
-13.57747364,-1.835594058,3.429512978,0.357192934,0.762031972,0.439657301,1
-8.071588516,-3.778566122,1.134796143,-0.1653869,0.758672297,0.175160453,1
-6.238687038,-2.493620396,3.202194929,-0.344975978,0.120795049,-0.001985254,1
-6.93978405,-2.448156595,3.379263878,-0.474475622,-0.196845531,-0.293970257,1
-9.258428574,-2.101197481,3.362514019,-0.199594349,-0.039246935,-0.54441762,1
-10.95254707,-2.03898406,2.316850424,0.405144453,0.187988237,-0.47722441,1
-9.689137459,-1.036391258,1.393221021,0.100942507,-0.100331664,-0.132706568,1
-9.655637741,-0.971785069,1.828714728,0.096055731,-0.079562858,-0.176687568,1
-9.653244972,-0.90478605,1.4267205,0.147366896,-0.068567604,-0.121711314,1
-10.13659477,-0.701396108,1.646860242,0.223111957,-0.122322164,-0.080173701,1
-10.14377308,-0.574576557,1.553540111,0.180352658,-0.172411636,-0.094834037,1
-9.698708534,-0.500399053,1.991426587,0.129041478,-0.187071979,-0.032527618,1
-9.897313118,-0.375972271,1.878963947,0.257319421,-0.168746561,-0.014202199,1
-10.33041382,-0.945464075,2.063211441,0.176687568,-0.062459134,-0.059404895,1
-10.88554859,-1.718345761,1.584646821,0.160805538,-0.147977754,-0.049631339,1
-10.67258739,-2.10359025,1.261615753,0.37093699,-0.040468629,-0.05207473,1
-9.600603104,-2.917150021,0.146560386,0.601837277,0.388346136,-0.038636088,1
-7.803592682,-2.61565423,2.017747641,0.443933249,0.678956747,0.103691325,1
-7.054639339,-2.596511602,2.948555708,0.197150946,0.233038232,0.068262182,1
-10.17488003,-2.651546478,6.607181549,0.089641832,-0.101706065,-0.091779798,1
-9.631709099,-1.993520379,2.079961061,0.860531092,-0.105371155,0.286945492,1
-14.11585903,-1.565205097,-0.28414768,1.135412335,-0.0503949,-0.042912021,1
-12.68255806,-1.500598907,2.393420935,-0.188904509,-0.179894522,-0.08322794,1
-7.695915699,-1.794916034,2.668595552,-0.341616333,-0.354596823,0.532506108,1
-6.645466805,-1.931306958,2.19242382,-0.243880764,-0.392469376,0.328483105,1
-7.688737392,-2.507977247,2.008176327,-0.424691558,-0.366813779,-0.001374406,1
-8.011768341,-2.137089729,2.654238462,-0.480889499,-0.209215179,-0.066124216,1
-8.789435387,-1.172782183,2.654238462,-0.433243424,-0.040621344,-0.177298412,1
-9.4809618,-0.787537754,3.451048374,-0.304965496,0.187835529,-0.2506001,1
-9.502496719,-0.33050862,2.871985435,-0.143701822,0.361316144,-0.233496368,1
-8.873184204,-0.603290439,2.915056229,-0.176687568,0.325887024,0.008399149,1
-8.990432739,-0.373579443,2.742773056,-0.348946482,0.248920262,0.034054734,1
-8.109873772,-1.859522343,2.249851465,-0.548082709,0.062000997,0.069483876,1
-8.660223007,-3.309572935,1.893320918,-0.622606039,0.085213192,-0.086893022,1
-11.96231842,-0.60089761,7.746165276,-0.631157935,0.352764279,-0.301911265,1
-13.96750355,0.454337209,5.106881618,0.116519116,0.181727067,0.027946262,1
-11.18943691,-0.878464997,-0.406181633,1.029124975,-0.100484371,0.845259905,1
-11.5459671,-3.099004507,0.816550732,0.10185878,-0.292290419,0.960099161,1
-12.12503052,-2.735295296,1.998605132,-0.640931487,-0.155460626,-0.223722816,1
-8.854042053,-2.505584478,1.141974568,-0.362385124,-0.149352148,-0.100331664,1
-5.647659779,-3.919742584,0.062811591,-0.241437376,0.083991498,0.434770525,1
-5.528018475,-3.166003466,0.773479939,-0.17424418,0.357651085,-0.045355409,1
-8.432905197,-3.43160677,0.153738856,0.034665581,0.283127695,-0.482722044,1
-11.70389366,-1.938485503,0.984048307,0.002901525,0.190278918,-0.650094211,1
-10.9501543,-1.46470654,0.148953214,-0.12659809,0.158514857,-0.180963501,1
-9.823135376,-1.641775489,0.22791636,-0.056961507,0.202495873,0.163554356,1
-9.765707016,-1.744666815,0.718445003,0.037108973,0.178061977,0.020616096,1
-8.607581139,-1.964806437,0.91465646,-0.0361927,0.345434129,-0.117435388,1
-8.983254433,-1.172782183,0.926620543,-0.026419144,0.463938504,-0.242048234,1
-9.674779892,-1.342672586,0.656231582,0.031000499,0.340547353,-0.348335654,1
-9.899705887,-1.500598907,0.830907643,-0.067956761,0.211047724,-0.228609592,1
-9.581459999,-1.333101273,1.17068851,-0.184017733,0.098651834,-0.117435388,1
-9.823135376,-1.223031521,1.194616675,-0.182796046,-0.055281676,-0.075897776,1
-9.880562782,-1.158425212,1.311864972,-0.085060477,-0.159125715,-0.097888276,1
-10.46919727,-0.722931564,0.77108711,0.166608587,-0.124918267,-0.132095724,1
-10.16052341,-0.658325315,0.838086128,0.194707558,0.002137966,-0.008704574,1
-9.500103951,-1.158425212,1.36211431,0.145839781,0.092543356,0.0865876,1
-9.514460564,-0.864108086,2.692523718,0.198372647,0.024128467,-0.009926268,1
-10.20837975,-0.526720107,2.527418852,0.49280104,-0.060168456,-0.113770299,1
-10.22512913,-1.1608181,0.761515796,0.674833536,0.054670829,0.047493376,1
-10.41416264,-1.766202211,-0.394217521,0.529451847,0.171953499,0.153780803,1
-11.25164986,-3.642175198,-2.038086653,0.311990231,0.230594844,0.03771982,1
-11.23968601,-5.735895157,-1.896910191,0.026113721,0.258693814,-0.084449634,1
-9.160323143,-5.769394398,0.677767038,-0.412474602,-0.294733793,0.238077715,1
-7.088139057,-3.761816263,3.750151396,-0.759435833,-0.881147146,0.914896488,1
-8.954540253,-1.036391258,2.079961061,-0.224333659,-0.680789292,0.830599546,1
-11.6584301,-0.574576557,0.814157903,0.558772504,-0.248309404,0.498298645,1
-12.32124233,-1.072283626,0.80219382,0.369409889,0.004581355,0.157445878,1
-9.449854851,-1.873879194,0.905085146,-0.091168955,-0.062611841,0.333369881,1
-7.72223711,-1.991127491,0.694516778,-0.518762052,-0.537851036,0.54960984,1
-7.329813957,-1.677667737,1.993819475,-0.877940238,-0.657577097,0.390789539,1
-8.150551796,-1.644168258,3.474976778,-0.869388342,-0.365592092,0.100026235,1
-9.000003815,-0.253938317,2.11585331,-0.220668569,-0.007635591,-0.017256435,1
-8.523832321,0.140877441,1.811964989,-0.016645588,0.094986752,0.075592346,1
-8.978468895,0.052342996,3.156731367,-0.26464957,0.091321662,0.034054734,1
-9.457033157,-0.167796686,2.857628345,-0.165692315,-0.052838288,-0.038025241,1
-9.110074043,-1.507777333,1.859821439,-0.053296424,-0.05650337,-0.008704574,1
-9.325428009,-2.132304192,1.177866936,-0.387735307,-0.013591352,-0.118046232,1
-11.91924763,0.313160658,6.188437462,-0.557550848,0.136677071,-0.138815045,1
-12.90509033,1.614856124,5.496912003,-0.155613333,-0.000152712,0.099415392,1
-10.91426182,1.44496572,1.21854496,0.844954491,0.223417386,0.623522341,1
-8.665008545,-2.228017092,0.230309173,0.499214917,-0.007482879,0.924059212,1
-12.18245792,-3.209074259,1.7138592,-0.434159696,-0.033138465,-0.267092973,1
-10.2275219,-2.486441851,0.988833964,-0.324207187,-0.024586603,-0.687355876,1
-6.633502483,-3.611068487,0.649053156,-0.53556031,-0.337340385,0.305881768,1
-6.621538639,-2.857329369,1.146760225,-0.566102684,-0.045355409,0.074981503,1
-8.949754715,-2.330908298,0.335593373,-0.00167983,0.295497358,-0.54441762,1
-10.36391354,-1.632204175,1.043868899,0.154697075,-0.111326911,-0.510210156,1
-10.47637558,-1.641775489,1.45782721,-0.368188173,-0.356887519,-0.292748541,1
-11.16790104,-1.546062589,0.996012449,-0.105523862,-0.027029991,-0.125376403,1
-10.00020409,-1.359422326,0.902692318,0.195012987,0.21853061,-0.165692315,1
-8.090731621,-1.940878272,0.952941597,0.041079476,0.374907494,-0.059404895,1
-8.361120224,-1.026820064,1.204187989,-0.136066228,0.433548838,-0.253654331,1
-9.110074043,-0.849751115,1.752144337,-0.231358394,0.300384134,-0.289083451,1
-10.03848934,-0.691824853,1.551147223,-0.032222193,0.137898773,-0.184017733,1
-9.794421196,-0.596111953,1.264008522,0.033749312,0.163554356,-0.099720813,1
-9.177073479,-0.725324392,1.73060894,-0.155613333,0.095139459,-0.01175881,1
-9.961918831,-0.699003339,1.649253011,-0.2081462,-0.016034741,-0.148588598,1
-10.75872898,-0.548255503,0.943370342,-0.077424891,0.025502874,-0.243880764,1
-9.782457352,-0.842572689,0.919442117,0.055739813,0.151337415,0.018783553,1
-9.602995872,-0.950249672,1.345364571,0.076508619,0.192875028,0.066429637,1
-10.25384331,-0.191724911,2.534597397,0.066735066,0.214865521,-0.074065231,1
-10.36391354,-0.105583303,2.814557552,0.362385124,0.168441132,0.00167983,1
-10.22991467,-0.462113887,0.493519664,0.65070504,0.236856028,0.140953004,1
-11.10808086,-0.526720107,0.519840717,0.455233932,0.142785549,0.088420138,1
-11.90010548,-2.637189627,-0.57128638,0.218225181,0.169662833,-0.000763559,1
-11.07218838,-4.087240219,-0.992423177,0.180352658,0.262511611,-0.048409645,1
-8.870791435,-5.1233325,-0.358325183,0.016645588,0.180658072,-0.069178455,1
-6.784250259,-4.178167343,1.701895118,-0.220363155,0.168441132,0.045660831,1
-6.3343997,-3.161217928,2.05124712,-0.194707558,-0.266482115,0.475697309,1
-9.325428009,-2.247159481,1.819143414,-0.000458135,-0.672084689,0.623522341,1
-13.27597809,-1.622632861,1.58703959,0.227998734,-0.393538356,0.171495363,1
-12.87159157,-1.232602715,0.510269403,0.295191944,-0.000152712,-0.26098448,1
-9.406784058,-1.897807479,1.254437327,0.099720813,0.0865876,0.118962504,1
-8.018946648,-1.526919961,2.05124712,-0.079868279,-0.127208948,0.369409889,1
-8.045268059,-0.751645386,0.806979418,-0.140953004,-0.443627834,0.343754292,1
-7.908876896,-0.907178879,2.611167669,-0.485470861,-0.453401387,0.28755635,1
-8.466404915,-0.390329182,3.10408926,-0.320542097,-0.135760799,-0.03130592,1
-9.308678627,0.346660167,2.596810818,0.135149956,0.201426879,-0.206008241,1
-9.535996437,0.538085997,2.575275421,0.322069228,0.304049224,-0.116824538,1
-9.488140106,0.102592275,3.386442184,0.275644839,0.145228937,0.100637086,1
-8.686544418,-1.469492197,1.838286042,0.148588598,-0.111326911,0.276561111,1
-8.918647766,-2.00787735,1.436291814,-0.144618094,-0.039246935,0.118962504,1
-11.86421299,0.463908494,8.358727455,-0.421942741,0.087809294,-0.256097704,1
-12.49113274,-0.323330164,2.077568293,0.364828527,-0.2506001,0.138509616,1
-13.55115318,-0.380757898,1.589432478,0.827850759,-0.033138465,0.39384377,1
-11.40239811,-0.935892761,1.07497561,0.072843537,-0.442406118,0.29122144,1
-9.715457916,-1.158425212,0.589232564,-0.059099473,-0.204175696,-0.16202724,1
-6.662216663,-2.177767754,0.23509483,-0.073759809,0.010842538,0.198372647,1
-6.159723759,-3.587140322,-0.14057833,-0.230136707,0.063375406,0.253348887,1
-8.038089752,-2.929114103,0.86680001,-0.430494606,0.119573347,-0.483332902,1
-9.334999084,-1.40010035,0.622732103,-0.242353648,0.023059484,-0.587176919,1
-10.21316528,-1.383350611,1.247258782,-0.18126893,-0.124765553,-0.281753302,1
-11.04347515,-1.110568762,0.486341208,-0.153169945,-0.060015742,-0.131484866,1
-10.4093771,-1.184746265,0.428913444,-0.172717065,0.065818794,-0.063069977,1
-9.291928291,-2.010270119,1.18743825,-0.384070218,0.0645971,-0.000763559,1
-8.734400749,-1.249352574,1.534397483,-0.423164427,0.264954984,-0.050853033,1
-8.796614647,-0.804287493,1.211366415,-0.219446883,0.345434129,-0.08933641,1
-8.779864311,-1.038784146,0.558125854,-0.077730313,0.229373142,-0.062459134,1
-9.177073479,-1.089033365,1.340578914,-0.262206197,0.159736559,-0.198067218,1
-9.751350403,-1.33788693,1.134796143,-0.417361379,0.148741305,-0.304354638,1
-10.69651508,-0.677467883,1.077368379,-0.345281422,0.134080976,-0.403311908,1
-10.43809032,-0.658325315,1.211366415,-0.336729556,-0.007635591,-0.23105298,1
-9.904491425,-0.909571707,1.319043517,-0.186461121,-0.016187452,-0.044133715,1
-9.930811882,-0.854536772,0.933799028,0.056656085,0.077883027,0.027946262,1
-9.978668213,-0.548255503,1.673181176,0.176382139,0.06566608,0.057266932,1
-10.14377308,-0.158225402,3.348157167,0.200816035,0.052227441,0.040163208,1
-9.789635658,-0.038584266,2.91266346,0.597866774,0.08765658,0.112243183,1
-10.73480034,-0.088833541,-0.18843478,0.828767002,0.180505365,0.209978744,1
-11.79003525,-0.579362154,-0.633499801,0.402395636,0.115755558,0.173327908,1
-10.7922287,-3.101397276,-1.095314622,-0.049631339,0.167066723,0.203870267,1
-9.356534958,-5.077868938,-1.11445713,-0.108272679,0.402853757,-0.038025241,1
-8.485547066,-5.183153152,0.402592421,-0.26464957,0.248920262,-0.288472623,1
-6.970890522,-3.465106249,2.663809776,-0.568851531,-0.332606345,-0.018478129,1
-8.720044136,-1.967199326,2.252244234,-0.467450857,-0.673459113,0.322374642,1
-12.20160103,-0.842572689,1.297508121,0.197150946,-0.440115452,0.268620074,1
-13.72822189,-1.342672586,-0.0951147,0.447598338,-0.098040983,-0.079562858,1
-10.85922718,-1.524527073,-1.559522152,0.114075728,0.168288425,-0.266482115,1
-7.425527096,-2.172981977,2.240280151,-0.627492845,-0.033291176,0.15500249,1
-6.774679184,-2.03898406,3.309871912,-0.627492845,-0.471879512,0.471421361,1
-8.681758881,-1.249352574,1.77846539,0.031000499,-0.311837524,0.126903519,1
-8.586046219,-0.641575575,1.974676847,0.222806543,-0.000305424,0.067040488,1
-9.086145401,0.162412837,3.001197815,0.082311668,0.245255172,0.036498122,1
-9.282357216,0.545264482,2.986840963,0.281447887,0.257472128,0.118351653,1
-10.47637558,1.007079244,3.305086374,0.474475622,0.126750812,0.126903519,1
-9.899705887,-1.32113719,1.716252089,0.377961755,-0.14690876,0.262511611,1
-7.482954502,-2.68026042,0.902692318,0.186155707,-0.063833542,0.362690568,1
-11.39043427,0.076271221,6.186044693,-0.108272679,0.184170455,-0.226166204,1
-14.0177536,-0.356829673,2.632703066,0.093306921,-0.435228676,-0.122322164,1
-13.99143219,-1.421635747,2.651845694,0.50013119,-0.13469182,0.348030239,1
-11.16072273,-1.467099428,1.888535261,0.121405892,-0.463327646,0.771958232,1
-9.14596653,-0.694217682,-0.018544376,0.307103455,0.077883027,0.528841019,1
-7.095317364,-1.706381679,-0.432502687,0.724922955,0.342990726,0.236856028,1
-6.219544411,-2.787937403,1.029511929,0.2521272,-0.055281676,-0.057572354,1
-6.970890522,-2.474477768,-0.083150588,0.045660831,-0.041843038,-0.486387134,1
-9.370891571,-1.347458243,-0.442073971,-0.020310672,0.179283664,-0.608556569,1
-10.8999052,-1.041176915,0.649053156,-0.163248926,0.279462636,-0.493717283,1
-10.9621191,-1.567597985,-0.241076887,-0.270758033,-0.030847786,-0.07711947,1
-10.29212856,-1.120140076,0.622732103,-0.450347155,0.029015245,0.04871507,1
-9.100502968,-1.727917075,1.185045362,-0.451568842,0.10353861,-0.112548605,1
-9.581459999,-1.407278776,0.706480861,-0.188904509,0.11331217,-0.209062472,1
-9.327820778,-0.947856843,0.670588553,-0.160805538,0.20005247,-0.207840785,1
-8.856434822,-0.691824853,1.342971683,-0.24876754,0.226929754,-0.193180442,1
-9.007183075,-0.74446696,1.089332461,-0.179130957,0.131637588,-0.201732308,1
-9.586245537,-0.742074132,1.149153113,-0.225555345,0.068109468,-0.290915996,1
-9.961918831,-0.749252617,1.297508121,-0.329399377,0.072996244,-0.301911265,1
-10.00977516,-0.593719125,1.252044439,-0.282974988,0.042453885,-0.188293666,1
-10.11745262,-0.646361232,1.275972724,-0.141258433,-0.052838288,-0.158972993,1
-10.6295166,-0.780359268,0.909870803,0.034665581,-0.033291176,-0.183406889,1
-9.811170578,-0.627218664,1.039083242,0.140953004,0.123085722,-0.085671328,1
-9.677172661,-0.177367985,1.677966833,0.209367901,0.143854529,0.026724568,1
-10.1844511,0.34187454,2.453241348,0.31932041,0.077883027,-0.024586603,1
-10.26580715,-0.404686123,1.582253933,0.59908843,0.064444385,-0.019699825,1
-11.5579319,-0.06011967,0.400199592,0.693158925,0.146297917,0.046271678,1
-11.78285694,-0.87367934,-0.535394073,0.533116937,0.160958245,0.146450624,1
-10.21077251,-3.321537018,-1.085743308,0.366966486,0.284349412,0.338256657,1
-9.052646637,-3.716352701,-0.583250523,0.138509616,0.378419876,0.18676655,1
-8.059624672,-4.249952316,0.232702002,0.048104223,0.196387395,0.018172706,1
-6.116652966,-3.276073217,2.857628345,-0.496771544,-0.347266674,0.497076958,1
-8.904291153,-1.187139153,2.036890268,-0.282974988,-0.589162171,0.541057944,1
-14.00100327,-0.955035329,0.996012449,0.232580096,-0.620926261,0.119573347,1
-14.60399437,-0.677467883,1.213759303,0.33031565,-0.122474879,-0.093001492,1
-9.06700325,-1.761416554,0.704088092,0.211811289,0.250141948,0.279615343,1
-6.257829189,-1.65613234,1.601396561,-0.184017733,-0.16645588,0.594812512,1
-7.683951855,-0.746859789,2.264208317,-0.446682066,-0.451110691,0.285723805,1
-9.299106598,-0.500399053,1.783251047,-0.293970257,-0.412016481,0.005955761,1
-9.16750145,-0.088833541,1.933998942,-0.137593344,-0.027182704,-0.025808297,1
-7.863413334,0.107377917,2.426920414,-0.13026318,0.187835529,0.112243183,1
-8.574081421,0.351445824,2.635095835,-0.12048962,0.114533864,-0.060015742,1
-10.07916737,0.526121855,2.680559635,0.005344913,0.043675579,-0.172411636,1
-9.339784622,-0.780359268,2.493919373,-0.039857782,-0.02107423,0.036498122,1
-8.528617859,-1.902593136,1.673181176,-0.170579091,-0.017409148,0.097582847,1
-11.33300591,0.521336257,5.726622581,-0.317182451,0.025350161,-0.184628591,1
-13.02951717,2.033600092,5.865406513,-0.023975754,-0.16645588,-0.158972993,1
-12.41934776,1.117149115,-0.157328084,0.94604969,-0.212880269,0.544723034,1
-11.7278223,-2.606082916,0.814157903,0.320542097,-0.058946762,0.598477602,1
-12.17527962,-1.297209024,2.309672117,-0.3672719,-0.201885015,-0.161416382,1
-8.023732185,-2.017448664,-0.085543409,0.07009472,-0.184781298,0.045049984,1
-5.166702271,-2.988934517,0.596411049,-0.01175881,0.058335911,0.388346136,1
-6.626324177,-2.084447622,-0.14057833,0.093306921,0.360094458,-0.300689578,1
-9.184251785,-1.725524187,-0.073579296,0.29122144,0.037567105,-0.540141702,1
-11.59860992,-0.12951152,1.252044439,-0.328177691,-0.287403643,-0.326345146,1
-11.45743275,-0.620040178,0.680159807,-0.280531615,-0.085824043,0.009620844,1
-9.952347755,-1.199103236,0.330807716,0.235023484,0.159736559,0.04871507,1
-8.775078773,-1.005284667,1.053440213,-0.005650337,0.281906009,-0.165081471,1
-8.361120224,-0.328115791,1.072582722,-0.221890271,0.301453114,-0.287250936,1
-9.191430092,-0.849751115,1.067797065,-0.249989241,0.14507623,-0.366661072,1
-9.447462082,-0.792323411,0.907477975,-0.111937761,0.27091077,-0.405755281,1
-9.210572243,-0.335294276,1.000798106,-0.19012621,0.286792785,-0.299467862,1
-9.851848602,-0.598504782,0.797408164,-0.229220435,0.066887774,-0.209062472,1
-10.60798073,-0.526720107,1.1395818,-0.230442122,0.020463383,-0.28602922,1
-10.34237766,-0.469292343,1.005583763,-0.202343151,0.118198946,-0.262817025,1
-10.5792675,-0.404686123,1.225723386,0.013896775,0.105981998,-0.033138465,1
-10.38784122,0.217447758,0.806979418,0.232580096,0.141411141,0.141563848,1
-9.856635094,-0.093619183,3.364906788,0.000458135,0.173175201,0.052380152,1
-9.772886276,-0.050548378,2.264208317,0.407282412,0.094986752,0.051158458,1
-11.30189991,-0.225224435,-0.075972117,0.614970505,0.156071469,-0.00503949,1
-12.20877934,-0.442971289,-1.267597795,0.621078968,0.209826037,-0.003817795,1
-9.887741089,-4.316951275,-0.92303133,0.160500124,0.328330398,0.275950253,1
-8.791828156,-4.819443703,-0.954138041,0.103080474,0.323443621,0.197761804,1
-8.045268059,-3.690031528,1.823929071,-0.12659809,-0.231205687,0.19898349,1
-8.033304214,-2.77597332,2.692523718,-0.344059706,-0.553733051,0.499520332,1
-10.67258739,-0.672682285,0.996012449,0.368188173,-0.311837524,0.555718303,1
-13.80957794,0.236590341,0.924227774,0.376740038,-0.379030734,0.361468852,1
-12.14895916,-0.871286571,0.80219382,0.057877779,-0.159125715,-0.002596101,1
-8.066802979,-1.565205097,0.826122046,-0.097277425,-0.112701319,0.264954984,1
-6.418148518,-1.30438745,1.910070658,-0.311073959,-0.310615838,0.457982719,1
-7.75812912,-0.134297177,2.304886341,-0.309852272,-0.360705316,0.208757058,1
-8.665008545,-0.043369912,1.342971683,-0.204786539,-0.227540597,-0.129652336,1
-8.547760963,0.212662116,2.223530531,-0.262206197,0.163401648,-0.08322794,1
-9.093324661,0.528514683,3.379263878,-0.292748541,0.169510111,-0.095444888,1
-10.05045319,1.040578723,3.34576416,0.048104223,0.112090468,-0.151642829,1
-9.023932457,-1.421635747,0.878764093,0.112854034,-0.102927767,0.030389652,1
-8.219944,-2.450549603,1.098903775,-0.157140464,-0.160347402,0.046271678,1
-12.80937767,1.760818362,9.445069313,-0.616497576,-0.06627693,-0.332453609,1
-14.1685009,0.942472994,0.404985219,0.42560783,-0.370478868,0.038941514,1
-9.102895737,-0.084047899,3.991826296,-0.194707558,-0.470505089,0.11774081,1
-8.952147484,-0.213260323,3.405584812,-0.052990999,-0.38498649,0.272896022,1
-9.241679192,-0.390329182,3.25005126,0.197456375,0.137898773,0.116519116,1
-9.193822861,-0.639182746,3.661616802,0.060626589,0.283280402,0.170273677,1
-8.904291153,-1.33788693,4.334000111,-0.331537336,-0.019699825,0.344975978,1
-9.03828907,-1.792523265,4.76949358,-0.578319669,-0.564575553,0.33031565,1
-8.193622589,-0.454935402,6.760322094,-0.231358394,-0.626882017,0.370631576,1
-10.82812023,-1.002891779,4.568496704,0.625049472,-0.978730023,0.516013205,1
-13.88614845,-3.972384691,-1.377667665,-0.254570603,0.124460131,-0.034971006,1
-9.820742607,-3.340679407,1.189831018,-0.969261885,0.676818788,-0.017867282,1
-6.614359856,-3.876671791,6.724429607,-1.063332319,-0.228609592,0.447598338,1
-8.763114929,-2.608475685,5.023132801,-0.374296665,-0.855338871,0.250905514,1
-10.78265667,-1.306780219,1.862214208,0.048409645,-0.093001492,-0.109494373,1
-10.02891827,-0.270688057,1.309472203,-0.172717065,-0.132095724,0.041995749,1
-7.016354084,-1.17756784,2.446063042,-0.187377393,0.328483105,0.078646585,1
-6.664609432,-1.543669701,3.857828379,-0.115297422,0.470199674,-0.396592587,1
-8.011768341,-1.715952992,3.19980216,-0.305881768,-0.527924716,-0.086282179,1
-8.459226608,-1.349851131,2.812164783,-0.627187431,-0.827239871,0.248462126,1
-10.09352398,-0.428614348,3.128017426,-0.371853262,-0.102775052,-0.063069977,1
-10.60798073,0.339481711,3.020340443,0.186461121,0.462869525,-0.325734288,1
-9.366106033,-1.067497969,3.340978622,0.429578334,0.766002476,-0.169357404,1
-8.820542336,-1.589133382,3.857828379,0.048409645,0.339478374,-0.213338405,1
-9.969097137,-1.11296165,3.223730326,-0.450041711,-0.419193923,-0.034971006,1
-10.28255749,-2.062912226,3.434298754,-0.373074949,-0.504712522,0.183712319,1
-10.71565819,-0.481256455,4.133002758,0.389262408,0.040163208,0.089641832,1
-12.28534985,-0.442971289,2.927020311,0.667808771,0.630394399,-0.026419144,1
-11.68714428,-2.445763826,2.331207514,0.181574345,0.927266121,0.106745556,1
-7.514061451,-5.568397522,3.508476257,-0.265565842,0.842969239,0.542890489,1
-4.061218262,-6.271887302,6.379863262,-0.209367901,0.701252639,0.274117708,1
-7.648059368,-2.567797899,6.375077724,0.388040721,-0.082006246,-0.278088212,1
-12.42891884,0.554835737,3.599403381,0.620162666,-0.441184431,-0.231663823,1
-11.71346474,0.145663083,0.479162723,0.355054975,0.477529854,0.033443887,1
-9.861420631,-0.536291361,1.802393675,0.281753302,1.21802938,-0.005650337,1
-6.717251301,-0.37836507,3.573082447,0.184017733,0.912605822,0.121405892,1
-5.681159019,-0.706181765,4.546961308,-0.148283169,0.352917016,0.184934005,1
-6.757929325,-0.751645386,3.178266764,-0.321763784,-0.295802772,0.264344156,1
-8.679366112,-0.210867494,2.302493572,-0.401173949,-0.298246175,0.158056721,1
-9.947562218,0.351445824,2.644667149,-0.456150204,-0.206619084,0.100637086,1
-9.945169449,0.638584554,2.97726965,-0.351084471,-0.088114716,0.132401139,1
-9.674779892,-0.275473714,3.532404423,-0.270452619,0.156224191,0.083533362,1
-11.56511021,-1.680060625,2.541775942,-0.610083699,-0.033138465,-0.067956761,1
-10.89511967,-1.909771562,6.303293228,-0.768903971,0.014507622,0.065207943,1
-12.61316681,-0.414257407,3.123231649,0.29641363,-0.482722044,0.215476364,1
